,participant,date,trial,angle,stim,stim_strength,incentive,desirability,valence,stake,endowment_size,resp,rt,correct,outcome,remain_endowment
0,1,2023-03-24_19h32.38.312,1,0.8013640000000001,0.8014,0.8013640000000001,1,-1.0,gain,0.5,0,1,1115.000000000009,1,0.0,0.0
1,1,2023-03-24_19h32.38.312,2,-88.788249,-1.2118,1.211751,1,-1.0,gain,0.5,0,-1,2170.000000000073,1,0.0,0.0
2,1,2023-03-24_19h32.38.312,3,-0.8013640000000001,-0.8014,0.8013640000000001,1,-1.0,gain,0.5,0,-1,2096.000000000004,1,0.0,0.0
3,1,2023-03-24_19h32.38.312,4,-1.211751,-1.2118,1.211751,1,-1.0,gain,0.5,0,1,1687.000000000012,0,0.0,0.0
4,1,2023-03-24_19h32.38.312,5,88.788249,1.2118,1.211751,1,-1.0,gain,0.5,0,-1,2856.999999999972,0,0.0,0.0
5,1,2023-03-24_19h32.38.312,6,89.198636,0.8014,0.8013640000000001,1,1.0,gain,0.5,0,-1,1515.999999999963,0,0.5,0.5
6,1,2023-03-24_19h32.38.312,7,1.211751,1.2118,1.211751,1,-1.0,gain,0.5,0,1,1573.000000000093,1,0.0,0.5
7,1,2023-03-24_19h32.38.312,8,-89.198636,-0.8014,0.8013640000000001,1,-1.0,gain,0.5,0,1,1841.999999999984,0,0.0,0.5
8,1,2023-03-24_19h32.38.312,9,1.211751,1.2118,1.211751,1,-1.0,gain,0.5,0,1,1561.999999999898,1,0.0,0.5
9,1,2023-03-24_19h32.38.312,10,0.8013640000000001,0.8014,0.8013640000000001,1,1.0,gain,0.5,0,1,1663.000000000011,1,0.5,1.0
10,1,2023-03-24_19h32.38.312,11,-89.198636,-0.8014,0.8013640000000001,1,-1.0,gain,0.5,0,1,2298.000000000002,0,0.0,1.0
11,1,2023-03-24_19h32.38.312,12,-0.8013640000000001,-0.8014,0.8013640000000001,1,1.0,gain,0.5,0,-1,2423.000000000002,1,0.5,1.5
12,1,2023-03-24_19h32.38.312,13,-88.788249,-1.2118,1.211751,1,-1.0,gain,0.5,0,-1,1957.99999999997,1,0.0,1.5
13,1,2023-03-24_19h32.38.312,14,88.788249,1.2118,1.211751,1,1.0,gain,0.5,0,1,2129.000000000019,1,0.5,2.0
14,1,2023-03-24_19h32.38.312,15,-1.211751,-1.2118,1.211751,1,-1.0,gain,0.5,0,-1,2539.999999999964,1,0.0,2.0
15,1,2023-03-24_19h32.38.312,16,89.198636,0.8014,0.8013640000000001,1,-1.0,gain,0.5,0,1,3423.999999999978,1,0.0,2.0
16,1,2023-03-24_19h32.38.312,17,-88.788249,-1.2118,1.211751,1,1.0,gain,0.5,0,-1,2726.999999999975,1,0.5,2.5
17,1,2023-03-24_19h32.38.312,18,1.211751,1.2118,1.211751,1,-1.0,gain,0.5,0,1,3705.000000000041,1,0.0,2.5
18,1,2023-03-24_19h32.38.312,19,89.198636,0.8014,0.8013640000000001,1,1.0,gain,0.5,0,1,2557.999999999993,1,0.5,3.0
19,1,2023-03-24_19h32.38.312,20,88.788249,1.2118,1.211751,1,-1.0,gain,0.5,0,1,1537.000000000035,1,0.0,3.0
20,1,2023-03-24_19h32.38.312,21,-89.198636,-0.8014,0.8013640000000001,1,-1.0,gain,0.5,0,-1,2099.999999999909,1,0.0,3.0
21,1,2023-03-24_19h32.38.312,22,0.8013640000000001,0.8014,0.8013640000000001,1,-1.0,gain,0.5,0,1,2554.000000000088,1,0.0,3.0
22,1,2023-03-24_19h32.38.312,23,-0.8013640000000001,-0.8014,0.8013640000000001,1,-1.0,gain,0.5,0,-1,3023.999999999887,1,0.0,3.0
23,1,2023-03-24_19h32.38.312,24,-1.211751,-1.2118,1.211751,1,-1.0,gain,0.5,0,-1,2233.999999999924,1,0.0,3.0
24,1,2023-03-24_19h32.38.312,25,1.211751,1.2118,1.211751,1,-1.0,gain,0.5,0,1,1152.000000000044,1,0.0,3.0
25,1,2023-03-24_19h32.38.312,26,-0.8013640000000001,-0.8014,0.8013640000000001,1,1.0,gain,0.5,0,-1,2652.000000000044,1,0.5,3.5
26,1,2023-03-24_19h32.38.312,27,89.198636,0.8014,0.8013640000000001,1,1.0,gain,0.5,0,1,3358.999999999924,1,0.5,4.0
27,1,2023-03-24_19h32.38.312,28,0.8013640000000001,0.8014,0.8013640000000001,1,1.0,gain,0.5,0,1,1666.000000000167,1,0.5,4.5
28,1,2023-03-24_19h32.38.312,29,-88.788249,-1.2118,1.211751,1,-1.0,gain,0.5,0,-1,3520.999999999958,1,0.0,4.5
29,1,2023-03-24_19h32.38.312,30,-1.211751,-1.2118,1.211751,1,-1.0,gain,0.5,0,-1,3456.999999999879,1,0.0,4.5
30,1,2023-03-24_19h32.38.312,31,88.788249,1.2118,1.211751,1,-1.0,gain,0.5,0,1,935.9999999999218,1,0.0,4.5
31,1,2023-03-24_19h32.38.312,32,-89.198636,-0.8014,0.8013640000000001,1,1.0,gain,0.5,0,1,2027.000000000044,0,0.5,5.0
32,2,2023-03-27_17h15.49.487,1,-89.198636,-0.8014,0.8013640000000001,1,1.0,loss,-0.5,16,-1,1169.299999952273,1,-0.0,16.0
33,2,2023-03-27_17h15.49.487,2,-1.211751,-1.2118,1.211751,1,-1.0,loss,-0.5,16,-1,1122.599999904651,1,-0.5,15.5
34,2,2023-03-27_17h15.49.487,3,0.8013640000000001,0.8014,0.8013640000000001,1,-1.0,loss,-0.5,16,-1,984.6000000238746,0,-0.5,15.0
35,2,2023-03-27_17h15.49.487,4,89.198636,0.8014,0.8013640000000001,1,-1.0,loss,-0.5,16,-1,1556.899999976167,0,-0.5,14.5
36,2,2023-03-27_17h15.49.487,5,-88.788249,-1.2118,1.211751,1,1.0,loss,-0.5,16,-1,1508.799999952317,1,-0.0,14.5
37,2,2023-03-27_17h15.49.487,6,88.788249,1.2118,1.211751,1,1.0,loss,-0.5,16,1,1068.699999928413,1,-0.0,14.5
38,2,2023-03-27_17h15.49.487,7,1.211751,1.2118,1.211751,1,1.0,loss,-0.5,16,1,1352.300000071523,1,-0.0,14.5
39,2,2023-03-27_17h15.49.487,8,-0.8013640000000001,-0.8014,0.8013640000000001,1,1.0,loss,-0.5,16,-1,1043.899999976247,1,-0.0,14.5
40,2,2023-03-27_17h15.49.487,9,-88.788249,-1.2118,1.211751,1,1.0,loss,-0.5,16,-1,1618.50000000004,1,-0.0,14.5
41,2,2023-03-27_17h15.49.487,10,88.788249,1.2118,1.211751,1,1.0,loss,-0.5,16,1,921.4000000954456,1,-0.0,14.5
42,2,2023-03-27_17h15.49.487,11,89.198636,0.8014,0.8013640000000001,1,-1.0,loss,-0.5,16,1,1203.600000023812,1,-0.5,14.0
43,2,2023-03-27_17h15.49.487,12,1.211751,1.2118,1.211751,1,-1.0,loss,-0.5,16,-1,1052.199999928462,0,-0.5,13.5
44,2,2023-03-27_17h15.49.487,13,-0.8013640000000001,-0.8014,0.8013640000000001,1,-1.0,loss,-0.5,16,-1,2055.200000047648,1,-0.5,13.0
45,2,2023-03-27_17h15.49.487,14,-89.198636,-0.8014,0.8013640000000001,1,1.0,loss,-0.5,16,-1,969.199999928378,1,-0.0,13.0
46,2,2023-03-27_17h15.49.487,15,-1.211751,-1.2118,1.211751,1,-1.0,loss,-0.5,16,1,1458.799999952362,0,-0.5,12.5
47,2,2023-03-27_17h15.49.487,16,0.8013640000000001,0.8014,0.8013640000000001,1,-1.0,loss,-0.5,16,-1,1694.799999952352,0,-0.5,12.0
48,2,2023-03-27_17h15.49.487,17,1.211751,1.2118,1.211751,1,1.0,loss,-0.5,16,1,836.3000000714464,1,-0.0,12.0
49,2,2023-03-27_17h15.49.487,18,-1.211751,-1.2118,1.211751,1,-1.0,loss,-0.5,16,-1,1001.399999976229,1,-0.5,11.5
50,2,2023-03-27_17h15.49.487,19,-0.8013640000000001,-0.8014,0.8013640000000001,1,-1.0,loss,-0.5,16,1,939.6999999285072,0,-0.5,11.0
51,2,2023-03-27_17h15.49.487,20,0.8013640000000001,0.8014,0.8013640000000001,1,1.0,loss,-0.5,16,1,942.8999999761344,1,-0.0,11.0
52,2,2023-03-27_17h15.49.487,21,-89.198636,-0.8014,0.8013640000000001,1,1.0,loss,-0.5,16,-1,2588.700000047766,1,-0.0,11.0
53,2,2023-03-27_17h15.49.487,22,88.788249,1.2118,1.211751,1,-1.0,loss,-0.5,16,-1,1967.799999952262,0,-0.5,10.5
54,2,2023-03-27_17h15.49.487,23,-88.788249,-1.2118,1.211751,1,-1.0,loss,-0.5,16,-1,1854.400000095325,1,-0.5,10.0
55,2,2023-03-27_17h15.49.487,24,89.198636,0.8014,0.8013640000000001,1,1.0,loss,-0.5,16,1,2386.799999952359,1,-0.0,10.0
56,2,2023-03-27_17h15.49.487,25,0.8013640000000001,0.8014,0.8013640000000001,1,1.0,loss,-0.5,16,1,1899.699999928544,1,-0.0,10.0
57,2,2023-03-27_17h15.49.487,26,-0.8013640000000001,-0.8014,0.8013640000000001,1,-1.0,loss,-0.5,16,-1,1135.10000002384,1,-0.5,9.5
58,2,2023-03-27_17h15.49.487,27,89.198636,0.8014,0.8013640000000001,1,-1.0,loss,-0.5,16,-1,1972.799999952258,0,-0.5,9.0
59,2,2023-03-27_17h15.49.487,28,-89.198636,-0.8014,0.8013640000000001,1,-1.0,loss,-0.5,16,1,2463.700000047766,0,-0.5,8.5
60,2,2023-03-27_17h15.49.487,29,-1.211751,-1.2118,1.211751,1,1.0,loss,-0.5,16,-1,1091.399999976147,1,-0.0,8.5
61,2,2023-03-27_17h15.49.487,30,-88.788249,-1.2118,1.211751,1,-1.0,loss,-0.5,16,1,1536.799999952336,0,-0.5,8.0
62,2,2023-03-27_17h15.49.487,31,88.788249,1.2118,1.211751,1,1.0,loss,-0.5,16,1,1169.800000071518,1,-0.0,8.0
63,2,2023-03-27_17h15.49.487,32,1.211751,1.2118,1.211751,1,-1.0,loss,-0.5,16,-1,2017.700000047625,0,-0.5,7.5
64,3,2023-03-25_13h54.01.381,1,-0.8013640000000001,-0.8014,0.8013640000000001,1,1.0,gain,0.5,0,-1,871.6000000238182,1,0.5,0.5
65,3,2023-03-25_13h54.01.381,2,-89.198636,-0.8014,0.8013640000000001,1,-1.0,gain,0.5,0,1,1951.000000000022,0,0.0,0.5
66,3,2023-03-25_13h54.01.381,3,0.8013640000000001,0.8014,0.8013640000000001,1,1.0,gain,0.5,0,-1,1950.200000047744,0,0.5,1.0
67,3,2023-03-25_13h54.01.381,4,89.198636,0.8014,0.8013640000000001,1,1.0,gain,0.5,0,-1,2183.299999952282,0,0.5,1.5
68,3,2023-03-25_13h54.01.381,5,-1.211751,-1.2118,1.211751,1,-1.0,gain,0.5,0,-1,1366.799999952264,1,0.0,1.5
69,3,2023-03-25_13h54.01.381,6,88.788249,1.2118,1.211751,1,-1.0,gain,0.5,0,1,2536.200000047643,1,0.0,1.5
70,3,2023-03-25_13h54.01.381,7,1.211751,1.2118,1.211751,1,1.0,gain,0.5,0,-1,1817.299999952297,0,0.5,2.0
71,3,2023-03-25_13h54.01.381,8,-88.788249,-1.2118,1.211751,1,1.0,gain,0.5,0,-1,1601.799999952391,1,0.5,2.5
72,3,2023-03-25_13h54.01.381,9,0.8013640000000001,0.8014,0.8013640000000001,1,1.0,gain,0.5,0,-1,1457.699999928423,0,0.5,3.0
73,3,2023-03-25_13h54.01.381,10,88.788249,1.2118,1.211751,1,-1.0,gain,0.5,0,1,1760.10000002384,1,0.0,3.0
74,3,2023-03-25_13h54.01.381,11,1.211751,1.2118,1.211751,1,-1.0,gain,0.5,0,1,1951.599999904602,1,0.0,3.0
75,3,2023-03-25_13h54.01.381,12,-1.211751,-1.2118,1.211751,1,1.0,gain,0.5,0,-1,1584.29999995235,1,0.5,3.5
76,3,2023-03-25_13h54.01.381,13,-89.198636,-0.8014,0.8013640000000001,1,1.0,gain,0.5,0,1,1482.900000095356,0,0.5,4.0
77,3,2023-03-25_13h54.01.381,14,-0.8013640000000001,-0.8014,0.8013640000000001,1,-1.0,gain,0.5,0,-1,1052.299999952311,1,0.0,4.0
78,3,2023-03-25_13h54.01.381,15,-88.788249,-1.2118,1.211751,1,-1.0,gain,0.5,0,-1,1189.200000047663,1,0.0,4.0
79,3,2023-03-25_13h54.01.381,16,89.198636,0.8014,0.8013640000000001,1,-1.0,gain,0.5,0,-1,2357.900000095356,0,0.0,4.0
80,3,2023-03-25_13h54.01.381,17,89.198636,0.8014,0.8013640000000001,1,1.0,gain,0.5,0,1,1958.000000000084,1,0.5,4.5
81,3,2023-03-25_13h54.01.381,18,88.788249,1.2118,1.211751,1,1.0,gain,0.5,0,-1,2371.300000071528,0,0.5,5.0
82,3,2023-03-25_13h54.01.381,19,-1.211751,-1.2118,1.211751,1,1.0,gain,0.5,0,-1,3172.000000000025,1,0.5,5.5
83,3,2023-03-25_13h54.01.381,20,1.211751,1.2118,1.211751,1,1.0,gain,0.5,0,-1,1620.399999976144,0,0.5,6.0
84,3,2023-03-25_13h54.01.381,21,-88.788249,-1.2118,1.211751,1,-1.0,gain,0.5,0,-1,1687.300000071559,1,0.0,6.0
85,3,2023-03-25_13h54.01.381,22,0.8013640000000001,0.8014,0.8013640000000001,1,1.0,gain,0.5,0,-1,2302.300000071454,0,0.5,6.5
86,3,2023-03-25_13h54.01.381,23,-89.198636,-0.8014,0.8013640000000001,1,-1.0,gain,0.5,0,-1,1354.000000000042,1,0.0,6.5
87,3,2023-03-25_13h54.01.381,24,-0.8013640000000001,-0.8014,0.8013640000000001,1,1.0,gain,0.5,0,1,1231.300000071542,0,0.5,7.0
88,3,2023-03-25_13h54.01.381,25,0.8013640000000001,0.8014,0.8013640000000001,1,-1.0,gain,0.5,0,1,932.8999999761436,1,0.0,7.0
89,3,2023-03-25_13h54.01.381,26,1.211751,1.2118,1.211751,1,1.0,gain,0.5,0,-1,1871.199999928536,0,0.5,7.5
90,3,2023-03-25_13h54.01.381,27,-0.8013640000000001,-0.8014,0.8013640000000001,1,1.0,gain,0.5,0,-1,1335.400000095433,1,0.5,8.0
91,3,2023-03-25_13h54.01.381,28,88.788249,1.2118,1.211751,1,-1.0,gain,0.5,0,1,1124.199999928578,1,0.0,8.0
92,3,2023-03-25_13h54.01.381,29,-88.788249,-1.2118,1.211751,1,-1.0,gain,0.5,0,-1,1031.699999928492,1,0.0,8.0
93,3,2023-03-25_13h54.01.381,30,-89.198636,-0.8014,0.8013640000000001,1,1.0,gain,0.5,0,-1,1166.199999928494,1,0.5,8.5
94,3,2023-03-25_13h54.01.381,31,89.198636,0.8014,0.8013640000000001,1,-1.0,gain,0.5,0,1,2360.300000071561,1,0.0,8.5
95,3,2023-03-25_13h54.01.381,32,-1.211751,-1.2118,1.211751,1,-1.0,gain,0.5,0,-1,1883.299999952328,1,0.0,8.5
96,4,2023-03-26_18h19.04.676,1,1.211751,1.2118,1.211751,1,-1.0,loss,-0.5,16,-1,1533.80000000061,0,-0.5,15.5
97,4,2023-03-26_18h19.04.676,2,88.788249,1.2118,1.211751,1,-1.0,loss,-0.5,16,-1,1084.200000002966,0,-0.5,15.0
98,4,2023-03-26_18h19.04.676,3,-89.198636,-0.8014,0.8013640000000001,1,-1.0,loss,-0.5,16,1,1437.300000000732,0,-0.5,14.5
99,4,2023-03-26_18h19.04.676,4,0.8013640000000001,0.8014,0.8013640000000001,1,-1.0,loss,-0.5,16,1,1603.100000001632,1,-0.5,14.0
100,4,2023-03-26_18h19.04.676,5,-88.788249,-1.2118,1.211751,1,1.0,loss,-0.5,16,-1,1732.899999998608,1,-0.0,14.0
101,4,2023-03-26_18h19.04.676,6,-1.211751,-1.2118,1.211751,1,-1.0,loss,-0.5,16,1,2586.899999998423,0,-0.5,13.5
102,4,2023-03-26_18h19.04.676,7,89.198636,0.8014,0.8013640000000001,1,1.0,loss,-0.5,16,1,2453.300000000809,1,-0.0,13.5
103,4,2023-03-26_18h19.04.676,8,-0.8013640000000001,-0.8014,0.8013640000000001,1,1.0,loss,-0.5,16,-1,1550.599999997758,1,-0.0,13.5
104,4,2023-03-26_18h19.04.676,9,89.198636,0.8014,0.8013640000000001,1,-1.0,loss,-0.5,16,-1,1300.999999999931,0,-0.5,13.0
105,4,2023-03-26_18h19.04.676,10,88.788249,1.2118,1.211751,1,1.0,loss,-0.5,16,1,1484.800000000633,1,-0.0,13.0
106,4,2023-03-26_18h19.04.676,11,0.8013640000000001,0.8014,0.8013640000000001,1,-1.0,loss,-0.5,16,1,1870.600000001559,1,-0.5,12.5
107,4,2023-03-26_18h19.04.676,12,-88.788249,-1.2118,1.211751,1,-1.0,loss,-0.5,16,1,1417.100000001483,0,-0.5,12.0
108,4,2023-03-26_18h19.04.676,13,-1.211751,-1.2118,1.211751,1,1.0,loss,-0.5,16,-1,1474.00000000016,1,-0.0,12.0
109,4,2023-03-26_18h19.04.676,14,1.211751,1.2118,1.211751,1,1.0,loss,-0.5,16,-1,2021.50000000006,0,-0.0,12.0
110,4,2023-03-26_18h19.04.676,15,-0.8013640000000001,-0.8014,0.8013640000000001,1,1.0,loss,-0.5,16,-1,1819.100000001526,1,-0.0,12.0
111,4,2023-03-26_18h19.04.676,16,-89.198636,-0.8014,0.8013640000000001,1,-1.0,loss,-0.5,16,1,1614.30000000064,0,-0.5,11.5
112,4,2023-03-26_18h19.04.676,17,-1.211751,-1.2118,1.211751,1,-1.0,loss,-0.5,16,-1,2770.199999999249,1,-0.5,11.0
113,4,2023-03-26_18h19.04.676,18,0.8013640000000001,0.8014,0.8013640000000001,1,1.0,loss,-0.5,16,-1,3369.000000000142,0,-0.0,11.0
114,4,2023-03-26_18h19.04.676,19,89.198636,0.8014,0.8013640000000001,1,-1.0,loss,-0.5,16,1,2009.199999999055,1,-0.5,10.5
115,4,2023-03-26_18h19.04.676,20,-0.8013640000000001,-0.8014,0.8013640000000001,1,1.0,loss,-0.5,16,-1,1552.099999997836,1,-0.0,10.5
116,4,2023-03-26_18h19.04.676,21,1.211751,1.2118,1.211751,1,1.0,loss,-0.5,16,1,2469.599999997854,1,-0.0,10.5
117,4,2023-03-26_18h19.04.676,22,88.788249,1.2118,1.211751,1,1.0,loss,-0.5,16,1,1183.900000002268,1,-0.0,10.5
118,4,2023-03-26_18h19.04.676,23,-88.788249,-1.2118,1.211751,1,-1.0,loss,-0.5,16,1,1385.300000000825,0,-0.5,10.0
119,4,2023-03-26_18h19.04.676,24,-89.198636,-0.8014,0.8013640000000001,1,-1.0,loss,-0.5,16,1,2884.699999999157,0,-0.5,9.5
120,4,2023-03-26_18h19.04.676,25,0.8013640000000001,0.8014,0.8013640000000001,1,-1.0,loss,-0.5,16,-1,2569.099999997661,0,-0.5,9.0
121,4,2023-03-26_18h19.04.676,26,1.211751,1.2118,1.211751,1,1.0,loss,-0.5,16,1,2435.800000000654,1,-0.0,9.0
122,4,2023-03-26_18h19.04.676,27,-89.198636,-0.8014,0.8013640000000001,1,-1.0,loss,-0.5,16,1,1833.399999998392,0,-0.5,8.5
123,4,2023-03-26_18h19.04.676,28,-88.788249,-1.2118,1.211751,1,1.0,loss,-0.5,16,-1,2950.199999999313,1,-0.0,8.5
124,4,2023-03-26_18h19.04.676,29,89.198636,0.8014,0.8013640000000001,1,-1.0,loss,-0.5,16,1,1452.100000001565,1,-0.5,8.0
125,4,2023-03-26_18h19.04.676,30,88.788249,1.2118,1.211751,1,-1.0,loss,-0.5,16,1,1215.400000002319,1,-0.5,7.5
126,4,2023-03-26_18h19.04.676,31,-0.8013640000000001,-0.8014,0.8013640000000001,1,-1.0,loss,-0.5,16,-1,2463.099999997894,1,-0.5,7.0
127,4,2023-03-26_18h19.04.676,32,-1.211751,-1.2118,1.211751,1,1.0,loss,-0.5,16,-1,1835.30000000087,1,-0.0,7.0
128,5,2023-03-25_13h59.58.669,1,89.198636,0.8014,0.8013640000000001,1,-1.0,gain,0.5,0,1,1526.200000002973,1,0.0,0.0
129,5,2023-03-25_13h59.58.669,2,-1.211751,-1.2118,1.211751,1,1.0,gain,0.5,0,-1,2165.300000000741,1,0.5,0.5
130,5,2023-03-25_13h59.58.669,3,88.788249,1.2118,1.211751,1,1.0,gain,0.5,0,1,1352.50000000002,1,0.5,1.0
131,5,2023-03-25_13h59.58.669,4,-89.198636,-0.8014,0.8013640000000001,1,-1.0,gain,0.5,0,1,3838.499999999954,0,0.0,1.0
132,5,2023-03-25_13h59.58.669,5,1.211751,1.2118,1.211751,1,1.0,gain,0.5,0,1,3885.300000000712,1,0.5,1.5
133,5,2023-03-25_13h59.58.669,6,-88.788249,-1.2118,1.211751,1,1.0,gain,0.5,0,-1,1612.699999999279,1,0.5,2.0
134,5,2023-03-25_13h59.58.669,7,0.8013640000000001,0.8014,0.8013640000000001,1,-1.0,gain,0.5,0,-1,2184.79999999704,0,0.0,2.0
135,5,2023-03-25_13h59.58.669,8,-0.8013640000000001,-0.8014,0.8013640000000001,1,1.0,gain,0.5,0,-1,2287.299999997003,1,0.5,2.5
136,5,2023-03-25_13h59.58.669,9,89.198636,0.8014,0.8013640000000001,1,1.0,gain,0.5,0,1,1483.600000001502,1,0.5,3.0
137,5,2023-03-25_13h59.58.669,10,-89.198636,-0.8014,0.8013640000000001,1,1.0,gain,0.5,0,-1,1841.000000000008,1,0.5,3.5
138,5,2023-03-25_13h59.58.669,11,-1.211751,-1.2118,1.211751,1,-1.0,gain,0.5,0,-1,4205.099999997741,1,0.0,3.5
139,5,2023-03-25_13h59.58.669,12,1.211751,1.2118,1.211751,1,-1.0,gain,0.5,0,1,2086.100000001466,1,0.0,3.5
140,5,2023-03-25_13h59.58.669,13,-88.788249,-1.2118,1.211751,1,1.0,gain,0.5,0,-1,2200.600000001486,1,0.5,4.0
141,5,2023-03-25_13h59.58.669,14,-0.8013640000000001,-0.8014,0.8013640000000001,1,1.0,gain,0.5,0,-1,1808.699999999249,1,0.5,4.5
142,5,2023-03-25_13h59.58.669,15,0.8013640000000001,0.8014,0.8013640000000001,1,-1.0,gain,0.5,0,1,1496.999999999957,1,0.0,4.5
143,5,2023-03-25_13h59.58.669,16,88.788249,1.2118,1.211751,1,-1.0,gain,0.5,0,1,2005.300000000716,1,0.0,4.5
144,5,2023-03-25_13h59.58.669,17,-0.8013640000000001,-0.8014,0.8013640000000001,1,-1.0,gain,0.5,0,-1,1905.699999999229,1,0.0,4.5
145,5,2023-03-25_13h59.58.669,18,88.788249,1.2118,1.211751,1,1.0,gain,0.5,0,1,1052.199999999175,1,0.5,5.0
146,5,2023-03-25_13h59.58.669,19,89.198636,0.8014,0.8013640000000001,1,-1.0,gain,0.5,0,1,1191.300000000751,1,0.0,5.0
147,5,2023-03-25_13h59.58.669,20,-1.211751,-1.2118,1.211751,1,1.0,gain,0.5,0,-1,1939.300000000799,1,0.5,5.5
148,5,2023-03-25_13h59.58.669,21,1.211751,1.2118,1.211751,1,-1.0,gain,0.5,0,1,2237.300000000801,1,0.0,5.5
149,5,2023-03-25_13h59.58.669,22,-88.788249,-1.2118,1.211751,1,-1.0,gain,0.5,0,-1,1535.199999999236,1,0.0,5.5
150,5,2023-03-25_13h59.58.669,23,0.8013640000000001,0.8014,0.8013640000000001,1,1.0,gain,0.5,0,-1,5337.900000002263,0,0.5,6.0
151,5,2023-03-25_13h59.58.669,24,-89.198636,-0.8014,0.8013640000000001,1,-1.0,gain,0.5,0,-1,1251.699999999346,1,0.0,6.0
152,5,2023-03-25_13h59.58.669,25,89.198636,0.8014,0.8013640000000001,1,-1.0,gain,0.5,0,1,968.6000000015156,1,0.0,6.0
153,5,2023-03-25_13h59.58.669,26,88.788249,1.2118,1.211751,1,-1.0,gain,0.5,0,1,900.5000000000791,1,0.0,6.0
154,5,2023-03-25_13h59.58.669,27,1.211751,1.2118,1.211751,1,-1.0,gain,0.5,0,1,2600.000000000023,1,0.0,6.0
155,5,2023-03-25_13h59.58.669,28,-0.8013640000000001,-0.8014,0.8013640000000001,1,1.0,gain,0.5,0,1,2564.800000000787,0,0.5,6.5
156,5,2023-03-25_13h59.58.669,29,-89.198636,-0.8014,0.8013640000000001,1,1.0,gain,0.5,0,-1,1023.099999997839,1,0.5,7.0
157,5,2023-03-25_13h59.58.669,30,-1.211751,-1.2118,1.211751,1,-1.0,gain,0.5,0,-1,2604.999999999905,1,0.0,7.0
158,5,2023-03-25_13h59.58.669,31,-88.788249,-1.2118,1.211751,1,1.0,gain,0.5,0,-1,1736.800000000812,1,0.5,7.5
159,5,2023-03-25_13h59.58.669,32,0.8013640000000001,0.8014,0.8013640000000001,1,1.0,gain,0.5,0,1,1519.000000000006,1,0.5,8.0
160,6,2023-03-25_18h07.35.151,1,-0.8013640000000001,-0.8014,0.8013640000000001,1,1.0,gain,0.5,0,1,682.2000000474873,0,0.5,0.5
161,6,2023-03-25_18h07.35.151,2,89.198636,0.8014,0.8013640000000001,1,1.0,gain,0.5,0,-1,1609.500000000026,0,0.5,1.0
162,6,2023-03-25_18h07.35.151,3,88.788249,1.2118,1.211751,1,1.0,gain,0.5,0,1,1045.099999904551,1,0.5,1.5
163,6,2023-03-25_18h07.35.151,4,-1.211751,-1.2118,1.211751,1,1.0,gain,0.5,0,1,477.0000000000891,0,0.5,2.0
164,6,2023-03-25_18h07.35.151,5,-89.198636,-0.8014,0.8013640000000001,1,1.0,gain,0.5,0,1,384.1999998091977,0,0.5,2.5
165,6,2023-03-25_18h07.35.151,6,-88.788249,-1.2118,1.211751,1,-1.0,gain,0.5,0,-1,472.4000000953765,1,0.0,2.5
166,6,2023-03-25_18h07.35.151,7,1.211751,1.2118,1.211751,1,-1.0,gain,0.5,0,1,557.8999998569998,1,0.0,2.5
167,6,2023-03-25_18h07.35.151,8,0.8013640000000001,0.8014,0.8013640000000001,1,1.0,gain,0.5,0,-1,366.2999999523889,0,0.5,3.0
168,6,2023-03-25_18h07.35.151,9,-88.788249,-1.2118,1.211751,1,1.0,gain,0.5,0,1,433.200000047691,0,0.5,3.5
169,6,2023-03-25_18h07.35.151,10,-1.211751,-1.2118,1.211751,1,-1.0,gain,0.5,0,1,572.4999999999909,0,0.0,3.5
170,6,2023-03-25_18h07.35.151,11,1.211751,1.2118,1.211751,1,-1.0,gain,0.5,0,1,499.4000000954202,1,0.0,3.5
171,6,2023-03-25_18h07.35.151,12,-89.198636,-0.8014,0.8013640000000001,1,-1.0,gain,0.5,0,1,687.4000000952947,0,0.0,3.5
172,6,2023-03-25_18h07.35.151,13,-0.8013640000000001,-0.8014,0.8013640000000001,1,-1.0,gain,0.5,0,1,474.999999999909,0,0.0,3.5
173,6,2023-03-25_18h07.35.151,14,89.198636,0.8014,0.8013640000000001,1,1.0,gain,0.5,0,1,535.7999999523599,1,0.5,4.0
174,6,2023-03-25_18h07.35.151,15,88.788249,1.2118,1.211751,1,1.0,gain,0.5,0,1,702.600000143093,1,0.5,4.5
175,6,2023-03-25_18h07.35.151,16,0.8013640000000001,0.8014,0.8013640000000001,1,-1.0,gain,0.5,0,-1,757.5000000001637,0,0.0,4.5
176,6,2023-03-25_18h07.35.151,17,-1.211751,-1.2118,1.211751,1,1.0,gain,0.5,0,1,491.7000000475582,0,0.5,5.0
177,6,2023-03-25_18h07.35.151,18,88.788249,1.2118,1.211751,1,1.0,gain,0.5,0,1,548.5999999045816,1,0.5,5.5
178,6,2023-03-25_18h07.35.151,19,-0.8013640000000001,-0.8014,0.8013640000000001,1,1.0,gain,0.5,0,-1,418.2000000475909,1,0.5,6.0
179,6,2023-03-25_18h07.35.151,20,-89.198636,-0.8014,0.8013640000000001,1,1.0,gain,0.5,0,-1,509.8999998567706,1,0.5,6.5
180,6,2023-03-25_18h07.35.151,21,-88.788249,-1.2118,1.211751,1,-1.0,gain,0.5,0,-1,486.4999999999782,1,0.0,6.5
181,6,2023-03-25_18h07.35.151,22,89.198636,0.8014,0.8013640000000001,1,1.0,gain,0.5,0,1,707.3000001905712,1,0.5,7.0
182,6,2023-03-25_18h07.35.151,23,0.8013640000000001,0.8014,0.8013640000000001,1,-1.0,gain,0.5,0,1,751.200000047902,1,0.0,7.0
183,6,2023-03-25_18h07.35.151,24,1.211751,1.2118,1.211751,1,-1.0,gain,0.5,0,-1,488.29999995246,0,0.0,7.0
184,6,2023-03-25_18h07.35.151,25,0.8013640000000001,0.8014,0.8013640000000001,1,1.0,gain,0.5,0,1,222.0000000002073,1,0.5,7.5
185,6,2023-03-25_18h07.35.151,26,89.198636,0.8014,0.8013640000000001,1,1.0,gain,0.5,0,1,253.7999999522071,1,0.5,8.0
186,6,2023-03-25_18h07.35.151,27,-88.788249,-1.2118,1.211751,1,1.0,gain,0.5,0,1,655.6000001430675,0,0.5,8.5
187,6,2023-03-25_18h07.35.151,28,88.788249,1.2118,1.211751,1,1.0,gain,0.5,0,1,641.1999998092597,1,0.5,9.0
188,6,2023-03-25_18h07.35.151,29,-0.8013640000000001,-0.8014,0.8013640000000001,1,1.0,gain,0.5,0,-1,416.7000000475127,1,0.5,9.5
189,6,2023-03-25_18h07.35.151,30,1.211751,1.2118,1.211751,1,-1.0,gain,0.5,0,1,875.6000001430948,1,0.0,9.5
190,6,2023-03-25_18h07.35.151,31,-89.198636,-0.8014,0.8013640000000001,1,1.0,gain,0.5,0,1,767.2000000477509,0,0.5,10.0
191,6,2023-03-25_18h07.35.151,32,-1.211751,-1.2118,1.211751,1,-1.0,gain,0.5,0,-1,591.4999999999964,1,0.0,10.0
192,7,2023-03-27_11h49.55.478,1,-89.198636,-0.8014,0.8013640000000001,1,-1.0,loss,-0.5,16,-1,847.1000000238291,1,-0.5,15.5
193,7,2023-03-27_11h49.55.478,2,89.198636,0.8014,0.8013640000000001,1,1.0,loss,-0.5,16,-1,801.4000000953274,0,-0.0,15.5
194,7,2023-03-27_11h49.55.478,3,0.8013640000000001,0.8014,0.8013640000000001,1,1.0,loss,-0.5,16,-1,651.8999999761945,0,-0.0,15.5
195,7,2023-03-27_11h49.55.478,4,-1.211751,-1.2118,1.211751,1,1.0,loss,-0.5,16,1,567.8999999762482,0,-0.0,15.5
196,7,2023-03-27_11h49.55.478,5,1.211751,1.2118,1.211751,1,1.0,loss,-0.5,16,1,168.6000000238436,1,-0.0,15.5
197,7,2023-03-27_11h49.55.478,6,88.788249,1.2118,1.211751,1,1.0,loss,-0.5,16,1,151.8000000714892,1,-0.0,15.5
198,7,2023-03-27_11h49.55.478,7,-0.8013640000000001,-0.8014,0.8013640000000001,1,-1.0,loss,-0.5,16,-1,216.1000000238572,1,-0.5,15.0
199,7,2023-03-27_11h49.55.478,8,-88.788249,-1.2118,1.211751,1,-1.0,loss,-0.5,16,-1,85.3000000714701,1,-0.5,14.5
200,7,2023-03-27_11h49.55.478,9,89.198636,0.8014,0.8013640000000001,1,1.0,loss,-0.5,16,-1,409.2000000476901,0,-0.0,14.5
201,7,2023-03-27_11h49.55.478,10,1.211751,1.2118,1.211751,1,-1.0,loss,-0.5,16,1,184.5999999046625,1,-0.5,14.0
202,7,2023-03-27_11h49.55.478,11,0.8013640000000001,0.8014,0.8013640000000001,1,1.0,loss,-0.5,16,1,817.900000095392,1,-0.0,14.0
203,7,2023-03-27_11h49.55.478,12,-89.198636,-0.8014,0.8013640000000001,1,1.0,loss,-0.5,16,1,67.8000000715428,0,-0.0,14.0
204,7,2023-03-27_11h49.55.478,13,88.788249,1.2118,1.211751,1,1.0,loss,-0.5,16,-1,334.2000000477583,0,-0.0,14.0
205,7,2023-03-27_11h49.55.478,14,-1.211751,-1.2118,1.211751,1,-1.0,loss,-0.5,16,-1,318.5000000000855,1,-0.5,13.5
206,7,2023-03-27_11h49.55.478,15,-0.8013640000000001,-0.8014,0.8013640000000001,1,-1.0,loss,-0.5,16,1,388.7999999524254,0,-0.5,13.0
207,7,2023-03-27_11h49.55.478,16,-88.788249,-1.2118,1.211751,1,1.0,loss,-0.5,16,-1,268.7000000478292,1,-0.0,13.0
208,7,2023-03-27_11h49.55.478,17,-0.8013640000000001,-0.8014,0.8013640000000001,1,1.0,loss,-0.5,16,1,451.3999999762746,0,-0.0,13.0
209,7,2023-03-27_11h49.55.478,18,88.788249,1.2118,1.211751,1,-1.0,loss,-0.5,16,-1,135.2999999521671,0,-0.5,12.5
210,7,2023-03-27_11h49.55.478,19,1.211751,1.2118,1.211751,1,-1.0,loss,-0.5,16,-1,301.700000047731,0,-0.5,12.0
211,7,2023-03-27_11h49.55.478,20,89.198636,0.8014,0.8013640000000001,1,1.0,loss,-0.5,16,-1,475.6000000236327,0,-0.0,12.0
212,7,2023-03-27_11h49.55.478,21,-88.788249,-1.2118,1.211751,1,-1.0,loss,-0.5,16,1,447.60000002384,0,-0.5,11.5
213,7,2023-03-27_11h49.55.478,22,-1.211751,-1.2118,1.211751,1,-1.0,loss,-0.5,16,-1,252.099999904658,1,-0.5,11.0
214,7,2023-03-27_11h49.55.478,23,0.8013640000000001,0.8014,0.8013640000000001,1,1.0,loss,-0.5,16,-1,136.8999999763218,0,-0.0,11.0
215,7,2023-03-27_11h49.55.478,24,-89.198636,-0.8014,0.8013640000000001,1,1.0,loss,-0.5,16,1,292.399999976169,0,-0.0,11.0
216,7,2023-03-27_11h49.55.478,25,0.8013640000000001,0.8014,0.8013640000000001,1,-1.0,loss,-0.5,16,1,535.5000000001837,1,-0.5,10.5
217,7,2023-03-27_11h49.55.478,26,88.788249,1.2118,1.211751,1,-1.0,loss,-0.5,16,-1,1208.000000000084,0,-0.5,10.0
218,7,2023-03-27_11h49.55.478,27,-1.211751,-1.2118,1.211751,1,-1.0,loss,-0.5,16,1,533.9999999998781,0,-0.5,9.5
219,7,2023-03-27_11h49.55.478,28,-0.8013640000000001,-0.8014,0.8013640000000001,1,1.0,loss,-0.5,16,-1,1784.399999976131,1,-0.0,9.5
220,7,2023-03-27_11h49.55.478,29,-89.198636,-0.8014,0.8013640000000001,1,-1.0,loss,-0.5,16,-1,2733.3999999762,1,-0.5,9.0
221,7,2023-03-27_11h49.55.478,30,1.211751,1.2118,1.211751,1,-1.0,loss,-0.5,16,-1,602.0999999045671,0,-0.5,8.5
222,7,2023-03-27_11h49.55.478,31,89.198636,0.8014,0.8013640000000001,1,1.0,loss,-0.5,16,-1,417.5000000000182,0,-0.0,8.5
223,7,2023-03-27_11h49.55.478,32,-88.788249,-1.2118,1.211751,1,1.0,loss,-0.5,16,1,217.4999999999727,0,-0.0,8.5
224,8,2023-03-24_19h17.01.638,1,0.8013640000000001,0.8014,0.8013640000000001,1,-1.0,gain,0.5,0,1,1765.299999952276,1,0.0,0.0
225,8,2023-03-24_19h17.01.638,2,88.788249,1.2118,1.211751,1,1.0,gain,0.5,0,1,1769.199999988132,1,0.5,0.5
226,8,2023-03-24_19h17.01.638,3,-88.788249,-1.2118,1.211751,1,1.0,gain,0.5,0,-1,1592.100000023834,1,0.5,1.0
227,8,2023-03-24_19h17.01.638,4,-0.8013640000000001,-0.8014,0.8013640000000001,1,-1.0,gain,0.5,0,-1,1320.8000000119,1,0.0,1.0
228,8,2023-03-24_19h17.01.638,5,-1.211751,-1.2118,1.211751,1,1.0,gain,0.5,0,1,3068.900000035683,0,0.5,1.5
229,8,2023-03-24_19h17.01.638,6,-89.198636,-0.8014,0.8013640000000001,1,-1.0,gain,0.5,0,-1,1650.800000011827,1,0.0,1.5
230,8,2023-03-24_19h17.01.638,7,1.211751,1.2118,1.211751,1,1.0,gain,0.5,0,1,1968.599999964226,1,0.5,2.0
231,8,2023-03-24_19h17.01.638,8,89.198636,0.8014,0.8013640000000001,1,-1.0,gain,0.5,0,1,2204.000000000065,1,0.0,2.0
232,8,2023-03-24_19h17.01.638,9,89.198636,0.8014,0.8013640000000001,1,-1.0,gain,0.5,0,1,2616.899999976113,1,0.0,2.0
233,8,2023-03-24_19h17.01.638,10,-89.198636,-0.8014,0.8013640000000001,1,1.0,gain,0.5,0,1,2100.89999997615,0,0.5,2.5
234,8,2023-03-24_19h17.01.638,11,-1.211751,-1.2118,1.211751,1,-1.0,gain,0.5,0,1,2116.300000011961,0,0.0,2.5
235,8,2023-03-24_19h17.01.638,12,-0.8013640000000001,-0.8014,0.8013640000000001,1,-1.0,gain,0.5,0,-1,2161.899999976185,1,0.0,2.5
236,8,2023-03-24_19h17.01.638,13,-88.788249,-1.2118,1.211751,1,1.0,gain,0.5,0,1,2217.400000035809,0,0.5,3.0
237,8,2023-03-24_19h17.01.638,14,1.211751,1.2118,1.211751,1,-1.0,gain,0.5,0,1,1320.699999988051,1,0.0,3.0
238,8,2023-03-24_19h17.01.638,15,0.8013640000000001,0.8014,0.8013640000000001,1,-1.0,gain,0.5,0,1,1704.39999997609,1,0.0,3.0
239,8,2023-03-24_19h17.01.638,16,88.788249,1.2118,1.211751,1,1.0,gain,0.5,0,1,1517.200000047637,1,0.5,3.5
240,8,2023-03-24_19h17.01.638,17,-0.8013640000000001,-0.8014,0.8013640000000001,1,1.0,gain,0.5,0,1,3535.800000011932,0,0.5,4.0
241,8,2023-03-24_19h17.01.638,18,88.788249,1.2118,1.211751,1,-1.0,gain,0.5,0,1,1801.800000011894,1,0.0,4.0
242,8,2023-03-24_19h17.01.638,19,-89.198636,-0.8014,0.8013640000000001,1,1.0,gain,0.5,0,1,1697.400000035714,0,0.5,4.5
243,8,2023-03-24_19h17.01.638,20,0.8013640000000001,0.8014,0.8013640000000001,1,1.0,gain,0.5,0,1,2062.300000011874,1,0.5,5.0
244,8,2023-03-24_19h17.01.638,21,1.211751,1.2118,1.211751,1,1.0,gain,0.5,0,1,1608.899999976188,1,0.5,5.5
245,8,2023-03-24_19h17.01.638,22,-1.211751,-1.2118,1.211751,1,1.0,gain,0.5,0,-1,1386.999999999944,1,0.5,6.0
246,8,2023-03-24_19h17.01.638,23,-88.788249,-1.2118,1.211751,1,1.0,gain,0.5,0,-1,2191.599999964296,1,0.5,6.5
247,8,2023-03-24_19h17.01.638,24,89.198636,0.8014,0.8013640000000001,1,-1.0,gain,0.5,0,1,1442.599999964273,1,0.0,6.5
248,8,2023-03-24_19h17.01.638,25,-1.211751,-1.2118,1.211751,1,-1.0,gain,0.5,0,1,1737.499999999954,0,0.0,6.5
249,8,2023-03-24_19h17.01.638,26,89.198636,0.8014,0.8013640000000001,1,1.0,gain,0.5,0,-1,2458.900000035783,0,0.5,7.0
250,8,2023-03-24_19h17.01.638,27,-88.788249,-1.2118,1.211751,1,1.0,gain,0.5,0,1,2079.699999988065,0,0.5,7.5
251,8,2023-03-24_19h17.01.638,28,-89.198636,-0.8014,0.8013640000000001,1,1.0,gain,0.5,0,1,1420.8999999762,0,0.5,8.0
252,8,2023-03-24_19h17.01.638,29,88.788249,1.2118,1.211751,1,1.0,gain,0.5,0,1,3769.499999999994,1,0.5,8.5
253,8,2023-03-24_19h17.01.638,30,1.211751,1.2118,1.211751,1,1.0,gain,0.5,0,1,1389.00000000001,1,0.5,9.0
254,8,2023-03-24_19h17.01.638,31,-0.8013640000000001,-0.8014,0.8013640000000001,1,1.0,gain,0.5,0,-1,1127.699999988067,1,0.5,9.5
255,8,2023-03-24_19h17.01.638,32,0.8013640000000001,0.8014,0.8013640000000001,1,-1.0,gain,0.5,0,1,2555.899999976191,1,0.0,9.5
256,9,2023-03-24_13h14.10.274,1,88.788249,1.2118,1.211751,1,-1.0,gain,0.5,0,1,1683.9,1,0.0,0.0
257,9,2023-03-24_13h14.10.274,2,-88.788249,-1.2118,1.211751,1,1.0,gain,0.5,0,1,1383.9,0,0.5,0.5
258,9,2023-03-24_13h14.10.274,3,89.198636,0.8014,0.801364,1,1.0,gain,0.5,0,1,1434.5,1,0.5,1.0
259,9,2023-03-24_13h14.10.274,4,0.801364,0.8014,0.801364,1,1.0,gain,0.5,0,-1,2016.7,0,0.5,1.5
260,9,2023-03-24_13h14.10.274,5,-0.801364,-0.8014,0.801364,1,1.0,gain,0.5,0,-1,1566.9,1,0.5,2.0
261,9,2023-03-24_13h14.10.274,6,-89.198636,-0.8014,0.801364,1,-1.0,gain,0.5,0,-1,2737.8,1,0.0,2.0
262,9,2023-03-24_13h14.10.274,7,-1.211751,-1.2118,1.211751,1,1.0,gain,0.5,0,1,1484.0,0,0.5,2.5
263,9,2023-03-24_13h14.10.274,8,1.211751,1.2118,1.211751,1,1.0,gain,0.5,0,-1,1433.9,0,0.5,3.0
264,9,2023-03-24_13h14.10.274,9,-89.198636,-0.8014,0.801364,1,1.0,gain,0.5,0,-1,2168.6,1,0.5,3.5
265,9,2023-03-24_13h14.10.274,10,-1.211751,-1.2118,1.211751,1,-1.0,gain,0.5,0,-1,1850.8,1,0.0,3.5
266,9,2023-03-24_13h14.10.274,11,89.198636,0.8014,0.801364,1,-1.0,gain,0.5,0,1,2451.3,1,0.0,3.5
267,9,2023-03-24_13h14.10.274,12,1.211751,1.2118,1.211751,1,1.0,gain,0.5,0,-1,1520.4,0,0.5,4.0
268,9,2023-03-24_13h14.10.274,13,-0.801364,-0.8014,0.801364,1,1.0,gain,0.5,0,1,1465.8,0,0.5,4.5
269,9,2023-03-24_13h14.10.274,14,-88.788249,-1.2118,1.211751,1,-1.0,gain,0.5,0,-1,2332.1,1,0.0,4.5
270,9,2023-03-24_13h14.10.274,15,0.801364,0.8014,0.801364,1,1.0,gain,0.5,0,-1,1283.6,0,0.5,5.0
271,9,2023-03-24_13h14.10.274,16,88.788249,1.2118,1.211751,1,-1.0,gain,0.5,0,1,1803.4,1,0.0,5.0
272,9,2023-03-24_13h14.10.274,17,89.198636,0.8014,0.801364,1,1.0,gain,0.5,0,1,1534.2,1,0.5,5.5
273,9,2023-03-24_13h14.10.274,18,-88.788249,-1.2118,1.211751,1,1.0,gain,0.5,0,1,2433.7,0,0.5,6.0
274,9,2023-03-24_13h14.10.274,19,-89.198636,-0.8014,0.801364,1,1.0,gain,0.5,0,1,1468.6,0,0.5,6.5
275,9,2023-03-24_13h14.10.274,20,-1.211751,-1.2118,1.211751,1,-1.0,gain,0.5,0,-1,2017.8,1,0.0,6.5
276,9,2023-03-24_13h14.10.274,21,88.788249,1.2118,1.211751,1,1.0,gain,0.5,0,1,1667.3,1,0.5,7.0
277,9,2023-03-24_13h14.10.274,22,0.801364,0.8014,0.801364,1,1.0,gain,0.5,0,-1,1300.7,0,0.5,7.5
278,9,2023-03-24_13h14.10.274,23,1.211751,1.2118,1.211751,1,1.0,gain,0.5,0,-1,1320.6,0,0.5,8.0
279,9,2023-03-24_13h14.10.274,24,-0.801364,-0.8014,0.801364,1,1.0,gain,0.5,0,-1,1321.6,1,0.5,8.5
280,9,2023-03-24_13h14.10.274,25,-88.788249,-1.2118,1.211751,1,-1.0,gain,0.5,0,1,2234.9,0,0.0,8.5
281,9,2023-03-24_13h14.10.274,26,1.211751,1.2118,1.211751,1,1.0,gain,0.5,0,-1,1306.6,0,0.5,9.0
282,9,2023-03-24_13h14.10.274,27,88.788249,1.2118,1.211751,1,1.0,gain,0.5,0,1,1850.7,1,0.5,9.5
283,9,2023-03-24_13h14.10.274,28,89.198636,0.8014,0.801364,1,1.0,gain,0.5,0,-1,2103.7,0,0.5,10.0
284,9,2023-03-24_13h14.10.274,29,0.801364,0.8014,0.801364,1,1.0,gain,0.5,0,-1,2552.5,0,0.5,10.5
285,9,2023-03-24_13h14.10.274,30,-0.801364,-0.8014,0.801364,1,1.0,gain,0.5,0,-1,1534.2,1,0.5,11.0
286,9,2023-03-24_13h14.10.274,31,-89.198636,-0.8014,0.801364,1,-1.0,gain,0.5,0,-1,2083.5,1,0.0,11.0
287,9,2023-03-24_13h14.10.274,32,-1.211751,-1.2118,1.211751,1,1.0,gain,0.5,0,-1,1385.1,1,0.5,11.5
288,10,2023-03-27_08h19.27.687,1,88.788249,1.2118,1.211751,1,-1.0,loss,-0.5,16,-1,1050.599999999576,0,-0.5,15.5
289,10,2023-03-27_08h19.27.687,2,-89.198636,-0.8014,0.8013640000000001,1,-1.0,loss,-0.5,16,-1,1011.900000000424,1,-0.5,15.0
290,10,2023-03-27_08h19.27.687,3,-0.8013640000000001,-0.8014,0.8013640000000001,1,-1.0,loss,-0.5,16,1,2023.400000000265,0,-0.5,14.5
291,10,2023-03-27_08h19.27.687,4,-1.211751,-1.2118,1.211751,1,-1.0,loss,-0.5,16,1,928.8000000005924,0,-0.5,14.0
292,10,2023-03-27_08h19.27.687,5,0.8013640000000001,0.8014,0.8013640000000001,1,1.0,loss,-0.5,16,1,969.0000000000508,1,-0.0,14.0
293,10,2023-03-27_08h19.27.687,6,-88.788249,-1.2118,1.211751,1,-1.0,loss,-0.5,16,1,3673.099999999749,0,-0.5,13.5
294,10,2023-03-27_08h19.27.687,7,89.198636,0.8014,0.8013640000000001,1,1.0,loss,-0.5,16,1,2066.699999999173,1,-0.0,13.5
295,10,2023-03-27_08h19.27.687,8,1.211751,1.2118,1.211751,1,1.0,loss,-0.5,16,1,2868.50000000004,1,-0.0,13.5
296,10,2023-03-27_08h19.27.687,9,-0.8013640000000001,-0.8014,0.8013640000000001,1,1.0,loss,-0.5,16,-1,1831.79999999993,1,-0.0,13.5
297,10,2023-03-27_08h19.27.687,10,0.8013640000000001,0.8014,0.8013640000000001,1,1.0,loss,-0.5,16,-1,1679.900000000544,0,-0.0,13.5
298,10,2023-03-27_08h19.27.687,11,1.211751,1.2118,1.211751,1,-1.0,loss,-0.5,16,1,2669.200000000274,1,-0.5,13.0
299,10,2023-03-27_08h19.27.687,12,88.788249,1.2118,1.211751,1,1.0,loss,-0.5,16,-1,1162.100000000464,0,-0.0,13.0
300,10,2023-03-27_08h19.27.687,13,-89.198636,-0.8014,0.8013640000000001,1,-1.0,loss,-0.5,16,1,7200.400000000401,0,-0.5,12.5
301,10,2023-03-27_08h19.27.687,14,-1.211751,-1.2118,1.211751,1,1.0,loss,-0.5,16,-1,1459.400000000414,1,-0.0,12.5
302,10,2023-03-27_08h19.27.687,15,-88.788249,-1.2118,1.211751,1,-1.0,loss,-0.5,16,-1,3515.20000000005,1,-0.5,12.0
303,10,2023-03-27_08h19.27.687,16,89.198636,0.8014,0.8013640000000001,1,-1.0,loss,-0.5,16,-1,4493.999999999915,0,-0.5,11.5
304,10,2023-03-27_08h19.27.687,17,1.211751,1.2118,1.211751,1,-1.0,loss,-0.5,16,1,1757.700000000341,1,-0.5,11.0
305,10,2023-03-27_08h19.27.687,18,89.198636,0.8014,0.8013640000000001,1,-1.0,loss,-0.5,16,1,2354.599999999664,1,-0.5,10.5
306,10,2023-03-27_08h19.27.687,19,88.788249,1.2118,1.211751,1,-1.0,loss,-0.5,16,-1,2232.70000000025,0,-0.5,10.0
307,10,2023-03-27_08h19.27.687,20,-88.788249,-1.2118,1.211751,1,1.0,loss,-0.5,16,1,1683.10000000065,0,-0.0,10.0
308,10,2023-03-27_08h19.27.687,21,-1.211751,-1.2118,1.211751,1,-1.0,loss,-0.5,16,-1,2828.099999999722,1,-0.5,9.5
309,10,2023-03-27_08h19.27.687,22,-0.8013640000000001,-0.8014,0.8013640000000001,1,1.0,loss,-0.5,16,-1,1492.899999999509,1,-0.0,9.5
310,10,2023-03-27_08h19.27.687,23,-89.198636,-0.8014,0.8013640000000001,1,-1.0,loss,-0.5,16,-1,6355.299999999716,1,-0.5,9.0
311,10,2023-03-27_08h19.27.687,24,0.8013640000000001,0.8014,0.8013640000000001,1,-1.0,loss,-0.5,16,-1,4549.50000000008,0,-0.5,8.5
312,10,2023-03-27_08h19.27.687,25,88.788249,1.2118,1.211751,1,1.0,loss,-0.5,16,1,2341.299999999819,1,-0.0,8.5
313,10,2023-03-27_08h19.27.687,26,0.8013640000000001,0.8014,0.8013640000000001,1,-1.0,loss,-0.5,16,1,1768.600000000561,1,-0.5,8.0
314,10,2023-03-27_08h19.27.687,27,1.211751,1.2118,1.211751,1,-1.0,loss,-0.5,16,1,1606.600000000526,1,-0.5,7.5
315,10,2023-03-27_08h19.27.687,28,-89.198636,-0.8014,0.8013640000000001,1,1.0,loss,-0.5,16,-1,1749.299999999948,1,-0.0,7.5
316,10,2023-03-27_08h19.27.687,29,-1.211751,-1.2118,1.211751,1,1.0,loss,-0.5,16,1,1477.400000000216,0,-0.0,7.5
317,10,2023-03-27_08h19.27.687,30,89.198636,0.8014,0.8013640000000001,1,-1.0,loss,-0.5,16,-1,4194.299999999656,0,-0.5,7.0
318,10,2023-03-27_08h19.27.687,31,-0.8013640000000001,-0.8014,0.8013640000000001,1,1.0,loss,-0.5,16,-1,9968.499999999947,1,-0.0,7.0
319,10,2023-03-27_08h19.27.687,32,-88.788249,-1.2118,1.211751,1,1.0,loss,-0.5,16,-1,4100.599999999758,1,-0.0,7.0
320,11,2023-03-25_14h44.19.041,1,0.8013640000000001,0.8014,0.8013640000000001,1,-1.0,gain,0.5,0,1,1913.999999999987,1,0.0,0.0
321,11,2023-03-25_14h44.19.041,2,-0.8013640000000001,-0.8014,0.8013640000000001,1,1.0,gain,0.5,0,-1,1918.000000000006,1,0.5,0.5
322,11,2023-03-25_14h44.19.041,3,-1.211751,-1.2118,1.211751,1,-1.0,gain,0.5,0,-1,2986.999999999966,1,0.0,0.5
323,11,2023-03-25_14h44.19.041,4,-88.788249,-1.2118,1.211751,1,-1.0,gain,0.5,0,-1,1934.000000000083,1,0.0,0.5
324,11,2023-03-25_14h44.19.041,5,88.788249,1.2118,1.211751,1,-1.0,gain,0.5,0,1,2108.999999999924,1,0.0,0.5
325,11,2023-03-25_14h44.19.041,6,89.198636,0.8014,0.8013640000000001,1,1.0,gain,0.5,0,1,3036.000000000058,1,0.5,1.0
326,11,2023-03-25_14h44.19.041,7,1.211751,1.2118,1.211751,1,1.0,gain,0.5,0,-1,1604.000000000042,0,0.5,1.5
327,11,2023-03-25_14h44.19.041,8,-89.198636,-0.8014,0.8013640000000001,1,1.0,gain,0.5,0,-1,1896.000000000072,1,0.5,2.0
328,11,2023-03-25_14h44.19.041,9,-88.788249,-1.2118,1.211751,1,-1.0,gain,0.5,0,-1,3052.999999999997,1,0.0,2.0
329,11,2023-03-25_14h44.19.041,10,-1.211751,-1.2118,1.211751,1,-1.0,gain,0.5,0,-1,1538.000000000011,1,0.0,2.0
330,11,2023-03-25_14h44.19.041,11,88.788249,1.2118,1.211751,1,-1.0,gain,0.5,0,1,1072.999999999979,1,0.0,2.0
331,11,2023-03-25_14h44.19.041,12,-89.198636,-0.8014,0.8013640000000001,1,1.0,gain,0.5,0,1,2251.999999999953,0,0.5,2.5
332,11,2023-03-25_14h44.19.041,13,1.211751,1.2118,1.211751,1,-1.0,gain,0.5,0,1,2538.999999999988,1,0.0,2.5
333,11,2023-03-25_14h44.19.041,14,89.198636,0.8014,0.8013640000000001,1,-1.0,gain,0.5,0,1,3319.999999999936,1,0.0,2.5
334,11,2023-03-25_14h44.19.041,15,-0.8013640000000001,-0.8014,0.8013640000000001,1,-1.0,gain,0.5,0,-1,2052.999999999884,1,0.0,2.5
335,11,2023-03-25_14h44.19.041,16,0.8013640000000001,0.8014,0.8013640000000001,1,-1.0,gain,0.5,0,1,2463.999999999942,1,0.0,2.5
336,11,2023-03-25_14h44.19.041,17,-89.198636,-0.8014,0.8013640000000001,1,1.0,gain,0.5,0,-1,1652.000000000044,1,0.5,3.0
337,11,2023-03-25_14h44.19.041,18,-1.211751,-1.2118,1.211751,1,-1.0,gain,0.5,0,-1,1786.000000000058,1,0.0,3.0
338,11,2023-03-25_14h44.19.041,19,88.788249,1.2118,1.211751,1,-1.0,gain,0.5,0,1,1202.999999999974,1,0.0,3.0
339,11,2023-03-25_14h44.19.041,20,-0.8013640000000001,-0.8014,0.8013640000000001,1,1.0,gain,0.5,0,-1,2167.999999999893,1,0.5,3.5
340,11,2023-03-25_14h44.19.041,21,1.211751,1.2118,1.211751,1,-1.0,gain,0.5,0,1,1105.999999999994,1,0.0,3.5
341,11,2023-03-25_14h44.19.041,22,-88.788249,-1.2118,1.211751,1,1.0,gain,0.5,0,-1,1201.999999999998,1,0.5,4.0
342,11,2023-03-25_14h44.19.041,23,89.198636,0.8014,0.8013640000000001,1,1.0,gain,0.5,0,1,1425.999999999931,1,0.5,4.5
343,11,2023-03-25_14h44.19.041,24,0.8013640000000001,0.8014,0.8013640000000001,1,-1.0,gain,0.5,0,1,2201.999999999998,1,0.0,4.5
344,11,2023-03-25_14h44.19.041,25,-89.198636,-0.8014,0.8013640000000001,1,1.0,gain,0.5,0,-1,1818.99999999996,1,0.5,5.0
345,11,2023-03-25_14h44.19.041,26,1.211751,1.2118,1.211751,1,-1.0,gain,0.5,0,1,1368.999999999915,1,0.0,5.0
346,11,2023-03-25_14h44.19.041,27,-1.211751,-1.2118,1.211751,1,1.0,gain,0.5,0,-1,1452.999999999974,1,0.5,5.5
347,11,2023-03-25_14h44.19.041,28,-0.8013640000000001,-0.8014,0.8013640000000001,1,-1.0,gain,0.5,0,-1,854.0000000000418,1,0.0,5.5
348,11,2023-03-25_14h44.19.041,29,89.198636,0.8014,0.8013640000000001,1,1.0,gain,0.5,0,1,1502.999999999929,1,0.5,6.0
349,11,2023-03-25_14h44.19.041,30,88.788249,1.2118,1.211751,1,-1.0,gain,0.5,0,1,2969.9999999998,1,0.0,6.0
350,11,2023-03-25_14h44.19.041,31,-88.788249,-1.2118,1.211751,1,-1.0,gain,0.5,0,-1,1434.999999999945,1,0.0,6.0
351,11,2023-03-25_14h44.19.041,32,0.8013640000000001,0.8014,0.8013640000000001,1,1.0,gain,0.5,0,1,2299.999999999955,1,0.5,6.5
352,12,2023-03-27_17h46.44.032,1,1.211751,1.2118,1.211751,1,1.0,loss,-0.5,16,1,1850.799999952415,1,-0.0,16.0
353,12,2023-03-27_17h46.44.032,2,-0.8013640000000001,-0.8014,0.8013640000000001,1,-1.0,loss,-0.5,16,1,3853.000000000065,0,-0.5,15.5
354,12,2023-03-27_17h46.44.032,3,-89.198636,-0.8014,0.8013640000000001,1,-1.0,loss,-0.5,16,1,3134.299999952304,0,-0.5,15.0
355,12,2023-03-27_17h46.44.032,4,88.788249,1.2118,1.211751,1,1.0,loss,-0.5,16,1,2559.60000002392,1,-0.0,15.0
356,12,2023-03-27_17h46.44.032,5,-1.211751,-1.2118,1.211751,1,1.0,loss,-0.5,16,-1,3083.400000095367,1,-0.0,15.0
357,12,2023-03-27_17h46.44.032,6,-88.788249,-1.2118,1.211751,1,-1.0,loss,-0.5,16,-1,2101.800000071535,1,-0.5,14.5
358,12,2023-03-27_17h46.44.032,7,89.198636,0.8014,0.8013640000000001,1,1.0,loss,-0.5,16,1,1650.900000095362,1,-0.0,14.5
359,12,2023-03-27_17h46.44.032,8,0.8013640000000001,0.8014,0.8013640000000001,1,1.0,loss,-0.5,16,1,1598.199999928511,1,-0.0,14.5
360,12,2023-03-27_17h46.44.032,9,89.198636,0.8014,0.8013640000000001,1,-1.0,loss,-0.5,16,1,1416.100000023789,1,-0.5,14.0
361,12,2023-03-27_17h46.44.032,10,0.8013640000000001,0.8014,0.8013640000000001,1,1.0,loss,-0.5,16,1,1367.399999976101,1,-0.0,14.0
362,12,2023-03-27_17h46.44.032,11,-89.198636,-0.8014,0.8013640000000001,1,1.0,loss,-0.5,16,-1,3116.100000023835,1,-0.0,14.0
363,12,2023-03-27_17h46.44.032,12,-1.211751,-1.2118,1.211751,1,-1.0,loss,-0.5,16,1,3295.400000095356,0,-0.5,13.5
364,12,2023-03-27_17h46.44.032,13,88.788249,1.2118,1.211751,1,1.0,loss,-0.5,16,1,1549.399999976231,1,-0.0,13.5
365,12,2023-03-27_17h46.44.032,14,1.211751,1.2118,1.211751,1,-1.0,loss,-0.5,16,1,2532.800000071461,1,-0.5,13.0
366,12,2023-03-27_17h46.44.032,15,-0.8013640000000001,-0.8014,0.8013640000000001,1,1.0,loss,-0.5,16,-1,1949.100000023805,1,-0.0,13.0
367,12,2023-03-27_17h46.44.032,16,-88.788249,-1.2118,1.211751,1,1.0,loss,-0.5,16,-1,1907.500000000028,1,-0.0,13.0
368,12,2023-03-27_17h46.44.032,17,-89.198636,-0.8014,0.8013640000000001,1,-1.0,loss,-0.5,16,-1,2101.399999976138,1,-0.5,12.5
369,12,2023-03-27_17h46.44.032,18,88.788249,1.2118,1.211751,1,1.0,loss,-0.5,16,-1,1267.299999952343,0,-0.0,12.5
370,12,2023-03-27_17h46.44.032,19,89.198636,0.8014,0.8013640000000001,1,-1.0,loss,-0.5,16,1,3320.600000023774,1,-0.5,12.0
371,12,2023-03-27_17h46.44.032,20,-88.788249,-1.2118,1.211751,1,1.0,loss,-0.5,16,1,2170.600000023796,0,-0.0,12.0
372,12,2023-03-27_17h46.44.032,21,-1.211751,-1.2118,1.211751,1,-1.0,loss,-0.5,16,1,1385.799999952269,0,-0.5,11.5
373,12,2023-03-27_17h46.44.032,22,0.8013640000000001,0.8014,0.8013640000000001,1,1.0,loss,-0.5,16,-1,3166.699999928483,0,-0.0,11.5
374,12,2023-03-27_17h46.44.032,23,1.211751,1.2118,1.211751,1,-1.0,loss,-0.5,16,1,1285.399999976221,1,-0.5,11.0
375,12,2023-03-27_17h46.44.032,24,-0.8013640000000001,-0.8014,0.8013640000000001,1,-1.0,loss,-0.5,16,-1,3590.299999952322,1,-0.5,10.5
376,12,2023-03-27_17h46.44.032,25,89.198636,0.8014,0.8013640000000001,1,1.0,loss,-0.5,16,1,1275.699999928634,1,-0.0,10.5
377,12,2023-03-27_17h46.44.032,26,0.8013640000000001,0.8014,0.8013640000000001,1,-1.0,loss,-0.5,16,1,1452.399999976024,1,-0.5,10.0
378,12,2023-03-27_17h46.44.032,27,1.211751,1.2118,1.211751,1,-1.0,loss,-0.5,16,1,1517.799999952331,1,-0.5,9.5
379,12,2023-03-27_17h46.44.032,28,-89.198636,-0.8014,0.8013640000000001,1,-1.0,loss,-0.5,16,1,1399.899999976242,0,-0.5,9.0
380,12,2023-03-27_17h46.44.032,29,-0.8013640000000001,-0.8014,0.8013640000000001,1,-1.0,loss,-0.5,16,1,992.8999999760892,0,-0.5,8.5
381,12,2023-03-27_17h46.44.032,30,-88.788249,-1.2118,1.211751,1,-1.0,loss,-0.5,16,1,1398.600000023634,0,-0.5,8.0
382,12,2023-03-27_17h46.44.032,31,-1.211751,-1.2118,1.211751,1,-1.0,loss,-0.5,16,1,1282.800000071575,0,-0.5,7.5
383,12,2023-03-27_17h46.44.032,32,88.788249,1.2118,1.211751,1,-1.0,loss,-0.5,16,1,2516.6000000238,1,-0.5,7.0
384,13,2023-03-24_19h14.32.218,1,-0.8013640000000001,-0.8014,0.8013640000000001,1,-1.0,gain,0.5,0,1,1021.000000000015,0,0.0,0.0
385,13,2023-03-24_19h14.32.218,2,-89.198636,-0.8014,0.8013640000000001,1,-1.0,gain,0.5,0,-1,959.3000000119218,1,0.0,0.0
386,13,2023-03-24_19h14.32.218,3,88.788249,1.2118,1.211751,1,1.0,gain,0.5,0,1,949.8999999761965,1,0.5,0.5
387,13,2023-03-24_19h14.32.218,4,-88.788249,-1.2118,1.211751,1,1.0,gain,0.5,0,1,868.5000000000401,0,0.5,1.0
388,13,2023-03-24_19h14.32.218,5,89.198636,0.8014,0.8013640000000001,1,1.0,gain,0.5,0,-1,921.5999999940436,0,0.5,1.5
389,13,2023-03-24_19h14.32.218,6,0.8013640000000001,0.8014,0.8013640000000001,1,-1.0,gain,0.5,0,1,1258.3000000119,1,0.0,1.5
390,13,2023-03-24_19h14.32.218,7,-1.211751,-1.2118,1.211751,1,1.0,gain,0.5,0,-1,1304.900000005944,1,0.5,2.0
391,13,2023-03-24_19h14.32.218,8,1.211751,1.2118,1.211751,1,-1.0,gain,0.5,0,1,930.8000000119137,1,0.0,2.0
392,13,2023-03-24_19h14.32.218,9,-1.211751,-1.2118,1.211751,1,1.0,gain,0.5,0,1,997.7000000178576,0,0.5,2.5
393,13,2023-03-24_19h14.32.218,10,1.211751,1.2118,1.211751,1,-1.0,gain,0.5,0,1,1058.499999999981,1,0.0,2.5
394,13,2023-03-24_19h14.32.218,11,-88.788249,-1.2118,1.211751,1,-1.0,gain,0.5,0,-1,1071.700000017927,1,0.0,2.5
395,13,2023-03-24_19h14.32.218,12,89.198636,0.8014,0.8013640000000001,1,-1.0,gain,0.5,0,1,932.2999999821492,1,0.0,2.5
396,13,2023-03-24_19h14.32.218,13,88.788249,1.2118,1.211751,1,-1.0,gain,0.5,0,1,867.9000000059887,1,0.0,2.5
397,13,2023-03-24_19h14.32.218,14,-89.198636,-0.8014,0.8013640000000001,1,1.0,gain,0.5,0,1,1009.799999982079,0,0.5,3.0
398,13,2023-03-24_19h14.32.218,15,0.8013640000000001,0.8014,0.8013640000000001,1,1.0,gain,0.5,0,1,1640.299999982176,1,0.5,3.5
399,13,2023-03-24_19h14.32.218,16,-0.8013640000000001,-0.8014,0.8013640000000001,1,1.0,gain,0.5,0,1,882.7999999821259,0,0.5,4.0
400,13,2023-03-24_19h14.32.218,17,-88.788249,-1.2118,1.211751,1,1.0,gain,0.5,0,1,915.0999999940268,0,0.5,4.5
401,13,2023-03-24_19h14.32.218,18,88.788249,1.2118,1.211751,1,1.0,gain,0.5,0,-1,933.599999994044,0,0.5,5.0
402,13,2023-03-24_19h14.32.218,19,0.8013640000000001,0.8014,0.8013640000000001,1,1.0,gain,0.5,0,-1,849.6000000238837,0,0.5,5.5
403,13,2023-03-24_19h14.32.218,20,-1.211751,-1.2118,1.211751,1,-1.0,gain,0.5,0,1,950.099999993995,0,0.0,5.5
404,13,2023-03-24_19h14.32.218,21,-0.8013640000000001,-0.8014,0.8013640000000001,1,1.0,gain,0.5,0,1,1158.500000000004,0,0.5,6.0
405,13,2023-03-24_19h14.32.218,22,89.198636,0.8014,0.8013640000000001,1,1.0,gain,0.5,0,-1,1120.700000017905,0,0.5,6.5
406,13,2023-03-24_19h14.32.218,23,1.211751,1.2118,1.211751,1,-1.0,gain,0.5,0,1,903.9999999999964,1,0.0,6.5
407,13,2023-03-24_19h14.32.218,24,-89.198636,-0.8014,0.8013640000000001,1,1.0,gain,0.5,0,-1,1289.500000000089,1,0.5,7.0
408,13,2023-03-24_19h14.32.218,25,-0.8013640000000001,-0.8014,0.8013640000000001,1,1.0,gain,0.5,0,1,899.9000000059141,0,0.5,7.5
409,13,2023-03-24_19h14.32.218,26,89.198636,0.8014,0.8013640000000001,1,1.0,gain,0.5,0,-1,865.5999999939468,0,0.5,8.0
410,13,2023-03-24_19h14.32.218,27,0.8013640000000001,0.8014,0.8013640000000001,1,1.0,gain,0.5,0,1,1038.600000023848,1,0.5,8.5
411,13,2023-03-24_19h14.32.218,28,88.788249,1.2118,1.211751,1,1.0,gain,0.5,0,-1,983.3000000119227,0,0.5,9.0
412,13,2023-03-24_19h14.32.218,29,-88.788249,-1.2118,1.211751,1,1.0,gain,0.5,0,-1,1516.79999998214,1,0.5,9.5
413,13,2023-03-24_19h14.32.218,30,-1.211751,-1.2118,1.211751,1,-1.0,gain,0.5,0,1,1115.000000000009,0,0.0,9.5
414,13,2023-03-24_19h14.32.218,31,-89.198636,-0.8014,0.8013640000000001,1,1.0,gain,0.5,0,-1,916.9000000059668,1,0.5,10.0
415,13,2023-03-24_19h14.32.218,32,1.211751,1.2118,1.211751,1,1.0,gain,0.5,0,-1,1167.200000017942,0,0.5,10.5
416,14,2023-03-26_18h14.13.697,1,0.8013640000000001,0.8014,0.8013640000000001,1,1.0,loss,-0.5,16,1,610.3000000715042,1,-0.0,16.0
417,14,2023-03-26_18h14.13.697,2,89.198636,0.8014,0.8013640000000001,1,-1.0,loss,-0.5,16,-1,843.2999999523076,0,-0.5,15.5
418,14,2023-03-26_18h14.13.697,3,-89.198636,-0.8014,0.8013640000000001,1,-1.0,loss,-0.5,16,-1,1508.700000047668,1,-0.5,15.0
419,14,2023-03-26_18h14.13.697,4,-1.211751,-1.2118,1.211751,1,-1.0,loss,-0.5,16,-1,755.6999999284812,1,-0.5,14.5
420,14,2023-03-26_18h14.13.697,5,1.211751,1.2118,1.211751,1,1.0,loss,-0.5,16,1,766.5000000000077,1,-0.0,14.5
421,14,2023-03-26_18h14.13.697,6,88.788249,1.2118,1.211751,1,-1.0,loss,-0.5,16,-1,687.100000023861,0,-0.5,14.0
422,14,2023-03-26_18h14.13.697,7,-0.8013640000000001,-0.8014,0.8013640000000001,1,-1.0,loss,-0.5,16,1,838.3999999761613,0,-0.5,13.5
423,14,2023-03-26_18h14.13.697,8,-88.788249,-1.2118,1.211751,1,-1.0,loss,-0.5,16,-1,1121.399999976177,1,-0.5,13.0
424,14,2023-03-26_18h14.13.697,9,89.198636,0.8014,0.8013640000000001,1,1.0,loss,-0.5,16,1,709.3999999761422,1,-0.0,13.0
425,14,2023-03-26_18h14.13.697,10,-0.8013640000000001,-0.8014,0.8013640000000001,1,1.0,loss,-0.5,16,1,1006.300000071519,0,-0.0,13.0
426,14,2023-03-26_18h14.13.697,11,0.8013640000000001,0.8014,0.8013640000000001,1,-1.0,loss,-0.5,16,1,738.3000000714901,1,-0.5,12.5
427,14,2023-03-26_18h14.13.697,12,1.211751,1.2118,1.211751,1,1.0,loss,-0.5,16,-1,887.1000000238496,0,-0.0,12.5
428,14,2023-03-26_18h14.13.697,13,-1.211751,-1.2118,1.211751,1,-1.0,loss,-0.5,16,1,1125.200000047641,0,-0.5,12.0
429,14,2023-03-26_18h14.13.697,14,88.788249,1.2118,1.211751,1,-1.0,loss,-0.5,16,1,754.8000000714978,1,-0.5,11.5
430,14,2023-03-26_18h14.13.697,15,-89.198636,-0.8014,0.8013640000000001,1,-1.0,loss,-0.5,16,-1,1881.000000000029,1,-0.5,11.0
431,14,2023-03-26_18h14.13.697,16,-88.788249,-1.2118,1.211751,1,-1.0,loss,-0.5,16,-1,681.0000000000401,1,-0.5,10.5
432,14,2023-03-26_18h14.13.697,17,-89.198636,-0.8014,0.8013640000000001,1,-1.0,loss,-0.5,16,-1,740.6999999285517,1,-0.5,10.0
433,14,2023-03-26_18h14.13.697,18,-0.8013640000000001,-0.8014,0.8013640000000001,1,1.0,loss,-0.5,16,1,1237.899999976207,0,-0.0,10.0
434,14,2023-03-26_18h14.13.697,19,0.8013640000000001,0.8014,0.8013640000000001,1,1.0,loss,-0.5,16,1,738.200000047641,1,-0.0,10.0
435,14,2023-03-26_18h14.13.697,20,-1.211751,-1.2118,1.211751,1,-1.0,loss,-0.5,16,-1,1822.700000047689,1,-0.5,9.5
436,14,2023-03-26_18h14.13.697,21,1.211751,1.2118,1.211751,1,-1.0,loss,-0.5,16,1,699.0000000000691,1,-0.5,9.0
437,14,2023-03-26_18h14.13.697,22,-88.788249,-1.2118,1.211751,1,1.0,loss,-0.5,16,-1,623.2000000477456,1,-0.0,9.0
438,14,2023-03-26_18h14.13.697,23,89.198636,0.8014,0.8013640000000001,1,1.0,loss,-0.5,16,1,723.4999999999445,1,-0.0,9.0
439,14,2023-03-26_18h14.13.697,24,88.788249,1.2118,1.211751,1,-1.0,loss,-0.5,16,-1,786.1000000237937,0,-0.5,8.5
440,14,2023-03-26_18h14.13.697,25,89.198636,0.8014,0.8013640000000001,1,1.0,loss,-0.5,16,-1,927.8000000715564,0,-0.0,8.5
441,14,2023-03-26_18h14.13.697,26,-1.211751,-1.2118,1.211751,1,-1.0,loss,-0.5,16,1,688.7000000476746,0,-0.5,8.0
442,14,2023-03-26_18h14.13.697,27,0.8013640000000001,0.8014,0.8013640000000001,1,-1.0,loss,-0.5,16,-1,1022.399999976187,0,-0.5,7.5
443,14,2023-03-26_18h14.13.697,28,-88.788249,-1.2118,1.211751,1,-1.0,loss,-0.5,16,-1,869.3000000714619,1,-0.5,7.0
444,14,2023-03-26_18h14.13.697,29,1.211751,1.2118,1.211751,1,1.0,loss,-0.5,16,1,605.1000000238673,1,-0.0,7.0
445,14,2023-03-26_18h14.13.697,30,-0.8013640000000001,-0.8014,0.8013640000000001,1,-1.0,loss,-0.5,16,1,675.1000000239173,0,-0.5,6.5
446,14,2023-03-26_18h14.13.697,31,-89.198636,-0.8014,0.8013640000000001,1,1.0,loss,-0.5,16,-1,497.1000000238064,1,-0.0,6.5
447,14,2023-03-26_18h14.13.697,32,88.788249,1.2118,1.211751,1,-1.0,loss,-0.5,16,-1,821.8000000715621,0,-0.5,6.0
448,15,2023-03-24_19h15.05.245,1,-0.8013640000000001,-0.8014,0.8013640000000001,1,1.0,gain,0.5,0,1,2538.599999904591,0,0.5,0.5
449,15,2023-03-24_19h15.05.245,2,-88.788249,-1.2118,1.211751,1,-1.0,gain,0.5,0,-1,2058.699999928536,1,0.0,0.5
450,15,2023-03-24_19h15.05.245,3,89.198636,0.8014,0.8013640000000001,1,-1.0,gain,0.5,0,1,2941.500000000019,1,0.0,0.5
451,15,2023-03-24_19h15.05.245,4,1.211751,1.2118,1.211751,1,1.0,gain,0.5,0,-1,4501.499999999965,0,0.5,1.0
452,15,2023-03-24_19h15.05.245,5,0.8013640000000001,0.8014,0.8013640000000001,1,-1.0,gain,0.5,0,1,4057.000000000016,1,0.0,1.0
453,15,2023-03-24_19h15.05.245,6,-1.211751,-1.2118,1.211751,1,1.0,gain,0.5,0,1,2764.899999976251,0,0.5,1.5
454,15,2023-03-24_19h15.05.245,7,-89.198636,-0.8014,0.8013640000000001,1,-1.0,gain,0.5,0,-1,2200.800000071468,1,0.0,1.5
455,15,2023-03-24_19h15.05.245,8,88.788249,1.2118,1.211751,1,-1.0,gain,0.5,0,-1,4448.100000023828,0,0.0,1.5
456,15,2023-03-24_19h15.05.245,9,-1.211751,-1.2118,1.211751,1,1.0,gain,0.5,0,-1,1565.400000095337,1,0.5,2.0
457,15,2023-03-24_19h15.05.245,10,-0.8013640000000001,-0.8014,0.8013640000000001,1,-1.0,gain,0.5,0,1,1322.200000047701,0,0.0,2.0
458,15,2023-03-24_19h15.05.245,11,0.8013640000000001,0.8014,0.8013640000000001,1,1.0,gain,0.5,0,1,5158.399999976155,1,0.5,2.5
459,15,2023-03-24_19h15.05.245,12,-88.788249,-1.2118,1.211751,1,-1.0,gain,0.5,0,1,2420.099999904551,0,0.0,2.5
460,15,2023-03-24_19h15.05.245,13,89.198636,0.8014,0.8013640000000001,1,1.0,gain,0.5,0,-1,4231.700000047681,0,0.5,3.0
461,15,2023-03-24_19h15.05.245,14,-89.198636,-0.8014,0.8013640000000001,1,-1.0,gain,0.5,0,-1,7566.499999999905,1,0.0,3.0
462,15,2023-03-24_19h15.05.245,15,88.788249,1.2118,1.211751,1,1.0,gain,0.5,0,1,2683.499999999981,1,0.5,3.5
463,15,2023-03-24_19h15.05.245,16,1.211751,1.2118,1.211751,1,1.0,gain,0.5,0,1,2224.799999952324,1,0.5,4.0
464,15,2023-03-24_19h15.05.245,17,89.198636,0.8014,0.8013640000000001,1,-1.0,gain,0.5,0,-1,3849.200000047632,0,0.0,4.0
465,15,2023-03-24_19h15.05.245,18,-1.211751,-1.2118,1.211751,1,1.0,gain,0.5,0,-1,2749.600000023861,1,0.5,4.5
466,15,2023-03-24_19h15.05.245,19,-89.198636,-0.8014,0.8013640000000001,1,-1.0,gain,0.5,0,1,1724.399999976185,0,0.0,4.5
467,15,2023-03-24_19h15.05.245,20,1.211751,1.2118,1.211751,1,-1.0,gain,0.5,0,1,4848.399999975982,1,0.0,4.5
468,15,2023-03-24_19h15.05.245,21,88.788249,1.2118,1.211751,1,1.0,gain,0.5,0,1,1799.400000095375,1,0.5,5.0
469,15,2023-03-24_19h15.05.245,22,0.8013640000000001,0.8014,0.8013640000000001,1,1.0,gain,0.5,0,-1,2216.399999976147,0,0.5,5.5
470,15,2023-03-24_19h15.05.245,23,-88.788249,-1.2118,1.211751,1,1.0,gain,0.5,0,-1,2382.300000071609,1,0.5,6.0
471,15,2023-03-24_19h15.05.245,24,-0.8013640000000001,-0.8014,0.8013640000000001,1,-1.0,gain,0.5,0,1,2858.200000047645,0,0.0,6.0
472,15,2023-03-24_19h15.05.245,25,-88.788249,-1.2118,1.211751,1,1.0,gain,0.5,0,-1,1877.600000023904,1,0.5,6.5
473,15,2023-03-24_19h15.05.245,26,1.211751,1.2118,1.211751,1,1.0,gain,0.5,0,1,2351.300000071433,1,0.5,7.0
474,15,2023-03-24_19h15.05.245,27,89.198636,0.8014,0.8013640000000001,1,1.0,gain,0.5,0,1,1612.200000047778,1,0.5,7.5
475,15,2023-03-24_19h15.05.245,28,-89.198636,-0.8014,0.8013640000000001,1,-1.0,gain,0.5,0,1,2226.499999999988,0,0.0,7.5
476,15,2023-03-24_19h15.05.245,29,88.788249,1.2118,1.211751,1,1.0,gain,0.5,0,1,1688.699999928531,1,0.5,8.0
477,15,2023-03-24_19h15.05.245,30,-1.211751,-1.2118,1.211751,1,1.0,gain,0.5,0,-1,2342.099999904576,1,0.5,8.5
478,15,2023-03-24_19h15.05.245,31,0.8013640000000001,0.8014,0.8013640000000001,1,1.0,gain,0.5,0,1,1574.100000023691,1,0.5,9.0
479,15,2023-03-24_19h15.05.245,32,-0.8013640000000001,-0.8014,0.8013640000000001,1,1.0,gain,0.5,0,-1,2067.299999952411,1,0.5,9.5
480,16,2023-03-25_13h54.01.593,1,-88.788249,-1.2118,1.211751,1,-1.0,gain,0.5,0,-1,1657.200000002945,1,0.0,0.0
481,16,2023-03-25_13h54.01.593,2,88.788249,1.2118,1.211751,1,-1.0,gain,0.5,0,-1,1650.399999991123,0,0.0,0.0
482,16,2023-03-25_13h54.01.593,3,1.211751,1.2118,1.211751,1,-1.0,gain,0.5,0,1,3810.299999997028,1,0.0,0.0
483,16,2023-03-25_13h54.01.593,4,89.198636,0.8014,0.8013640000000001,1,1.0,gain,0.5,0,-1,1335.000000000036,0,0.5,0.5
484,16,2023-03-25_13h54.01.593,5,-89.198636,-0.8014,0.8013640000000001,1,1.0,gain,0.5,0,-1,1030.499999999961,1,0.5,1.0
485,16,2023-03-25_13h54.01.593,6,0.8013640000000001,0.8014,0.8013640000000001,1,1.0,gain,0.5,0,-1,1749.900000005937,0,0.5,1.5
486,16,2023-03-25_13h54.01.593,7,-0.8013640000000001,-0.8014,0.8013640000000001,1,1.0,gain,0.5,0,1,883.8999999910584,0,0.5,2.0
487,16,2023-03-25_13h54.01.593,8,-1.211751,-1.2118,1.211751,1,-1.0,gain,0.5,0,1,1520.700000002989,0,0.0,2.0
488,16,2023-03-25_13h54.01.593,9,1.211751,1.2118,1.211751,1,1.0,gain,0.5,0,-1,2133.400000005963,0,0.5,2.5
489,16,2023-03-25_13h54.01.593,10,88.788249,1.2118,1.211751,1,-1.0,gain,0.5,0,1,1218.599999994126,1,0.0,2.5
490,16,2023-03-25_13h54.01.593,11,89.198636,0.8014,0.8013640000000001,1,1.0,gain,0.5,0,-1,1333.700000002978,0,0.5,3.0
491,16,2023-03-25_13h54.01.593,12,-0.8013640000000001,-0.8014,0.8013640000000001,1,1.0,gain,0.5,0,1,1089.000000000056,0,0.5,3.5
492,16,2023-03-25_13h54.01.593,13,-88.788249,-1.2118,1.211751,1,1.0,gain,0.5,0,1,1530.300000011948,0,0.5,4.0
493,16,2023-03-25_13h54.01.593,14,0.8013640000000001,0.8014,0.8013640000000001,1,-1.0,gain,0.5,0,1,933.599999994044,1,0.0,4.0
494,16,2023-03-25_13h54.01.593,15,-89.198636,-0.8014,0.8013640000000001,1,-1.0,gain,0.5,0,1,1008.100000008881,0,0.0,4.0
495,16,2023-03-25_13h54.01.593,16,-1.211751,-1.2118,1.211751,1,-1.0,gain,0.5,0,1,800.4999999999427,0,0.0,4.0
496,16,2023-03-25_13h54.01.593,17,0.8013640000000001,0.8014,0.8013640000000001,1,-1.0,gain,0.5,0,-1,866.1000000089416,0,0.0,4.0
497,16,2023-03-25_13h54.01.593,18,88.788249,1.2118,1.211751,1,1.0,gain,0.5,0,1,1387.700000002951,1,0.5,4.5
498,16,2023-03-25_13h54.01.593,19,-88.788249,-1.2118,1.211751,1,1.0,gain,0.5,0,1,1440.799999997012,0,0.5,5.0
499,16,2023-03-25_13h54.01.593,20,-89.198636,-0.8014,0.8013640000000001,1,1.0,gain,0.5,0,1,1416.000000000054,0,0.5,5.5
500,16,2023-03-25_13h54.01.593,21,89.198636,0.8014,0.8013640000000001,1,-1.0,gain,0.5,0,1,1437.000000000012,1,0.0,5.5
501,16,2023-03-25_13h54.01.593,22,-1.211751,-1.2118,1.211751,1,-1.0,gain,0.5,0,1,1183.499999999981,0,0.0,5.5
502,16,2023-03-25_13h54.01.593,23,-0.8013640000000001,-0.8014,0.8013640000000001,1,-1.0,gain,0.5,0,-1,1132.900000005975,1,0.0,5.5
503,16,2023-03-25_13h54.01.593,24,1.211751,1.2118,1.211751,1,1.0,gain,0.5,0,-1,1699.500000000057,0,0.5,6.0
504,16,2023-03-25_13h54.01.593,25,89.198636,0.8014,0.8013640000000001,1,-1.0,gain,0.5,0,1,1535.200000002988,1,0.0,6.0
505,16,2023-03-25_13h54.01.593,26,1.211751,1.2118,1.211751,1,1.0,gain,0.5,0,-1,1738.599999994108,0,0.5,6.5
506,16,2023-03-25_13h54.01.593,27,0.8013640000000001,0.8014,0.8013640000000001,1,-1.0,gain,0.5,0,-1,1846.399999991036,0,0.0,6.5
507,16,2023-03-25_13h54.01.593,28,-89.198636,-0.8014,0.8013640000000001,1,-1.0,gain,0.5,0,-1,1693.499999999972,1,0.0,6.5
508,16,2023-03-25_13h54.01.593,29,-0.8013640000000001,-0.8014,0.8013640000000001,1,1.0,gain,0.5,0,1,1567.299999996976,0,0.5,7.0
509,16,2023-03-25_13h54.01.593,30,-1.211751,-1.2118,1.211751,1,1.0,gain,0.5,0,1,2332.600000008938,0,0.5,7.5
510,16,2023-03-25_13h54.01.593,31,88.788249,1.2118,1.211751,1,-1.0,gain,0.5,0,1,985.200000003033,1,0.0,7.5
511,16,2023-03-25_13h54.01.593,32,-88.788249,-1.2118,1.211751,1,1.0,gain,0.5,0,1,2700.799999996889,0,0.5,8.0
512,17,2023-03-24_19h14.51.313,1,0.8013640000000001,0.8014,0.8013640000000001,1,1.0,gain,0.5,0,-1,1466.000000000008,0,0.5,0.5
513,17,2023-03-24_19h14.51.313,2,89.198636,0.8014,0.8013640000000001,1,-1.0,gain,0.5,0,-1,1783.000000000016,0,0.0,0.5
514,17,2023-03-24_19h14.51.313,3,-88.788249,-1.2118,1.211751,1,-1.0,gain,0.5,0,-1,1793.999999999983,1,0.0,0.5
515,17,2023-03-24_19h14.51.313,4,-0.8013640000000001,-0.8014,0.8013640000000001,1,-1.0,gain,0.5,0,-1,1091.999999999984,1,0.0,0.5
516,17,2023-03-24_19h14.51.313,5,-1.211751,-1.2118,1.211751,1,-1.0,gain,0.5,0,-1,1111.999999999966,1,0.0,0.5
517,17,2023-03-24_19h14.51.313,6,1.211751,1.2118,1.211751,1,-1.0,gain,0.5,0,1,969.0000000000508,1,0.0,0.5
518,17,2023-03-24_19h14.51.313,7,88.788249,1.2118,1.211751,1,-1.0,gain,0.5,0,1,1858.999999999924,1,0.0,0.5
519,17,2023-03-24_19h14.51.313,8,-89.198636,-0.8014,0.8013640000000001,1,-1.0,gain,0.5,0,-1,1166.000000000054,1,0.0,0.5
520,17,2023-03-24_19h14.51.313,9,-1.211751,-1.2118,1.211751,1,-1.0,gain,0.5,0,-1,918.0000000000064,1,0.0,0.5
521,17,2023-03-24_19h14.51.313,10,1.211751,1.2118,1.211751,1,-1.0,gain,0.5,0,1,1682.999999999993,1,0.0,0.5
522,17,2023-03-24_19h14.51.313,11,-88.788249,-1.2118,1.211751,1,-1.0,gain,0.5,0,-1,1517.000000000053,1,0.0,0.5
523,17,2023-03-24_19h14.51.313,12,89.198636,0.8014,0.8013640000000001,1,-1.0,gain,0.5,0,1,1688.999999999964,1,0.0,0.5
524,17,2023-03-24_19h14.51.313,13,88.788249,1.2118,1.211751,1,-1.0,gain,0.5,0,-1,1886.000000000081,0,0.0,0.5
525,17,2023-03-24_19h14.51.313,14,-0.8013640000000001,-0.8014,0.8013640000000001,1,-1.0,gain,0.5,0,-1,1687.000000000012,1,0.0,0.5
526,17,2023-03-24_19h14.51.313,15,0.8013640000000001,0.8014,0.8013640000000001,1,-1.0,gain,0.5,0,1,1282.000000000039,1,0.0,0.5
527,17,2023-03-24_19h14.51.313,16,-89.198636,-0.8014,0.8013640000000001,1,-1.0,gain,0.5,0,-1,1474.000000000046,1,0.0,0.5
528,17,2023-03-24_19h14.51.313,17,-0.8013640000000001,-0.8014,0.8013640000000001,1,-1.0,gain,0.5,0,-1,1980.000000000018,1,0.0,0.5
529,17,2023-03-24_19h14.51.313,18,-89.198636,-0.8014,0.8013640000000001,1,1.0,gain,0.5,0,1,1156.999999999925,0,0.5,1.0
530,17,2023-03-24_19h14.51.313,19,-88.788249,-1.2118,1.211751,1,-1.0,gain,0.5,0,-1,1771.999999999934,1,0.0,1.0
531,17,2023-03-24_19h14.51.313,20,1.211751,1.2118,1.211751,1,-1.0,gain,0.5,0,-1,967.9999999999608,0,0.0,1.0
532,17,2023-03-24_19h14.51.313,21,0.8013640000000001,0.8014,0.8013640000000001,1,-1.0,gain,0.5,0,-1,1394.999999999982,0,0.0,1.0
533,17,2023-03-24_19h14.51.313,22,89.198636,0.8014,0.8013640000000001,1,1.0,gain,0.5,0,-1,2026.000000000068,0,0.5,1.5
534,17,2023-03-24_19h14.51.313,23,88.788249,1.2118,1.211751,1,1.0,gain,0.5,0,-1,2233.000000000061,0,0.5,2.0
535,17,2023-03-24_19h14.51.313,24,-1.211751,-1.2118,1.211751,1,1.0,gain,0.5,0,-1,1197.000000000003,1,0.5,2.5
536,17,2023-03-24_19h14.51.313,25,89.198636,0.8014,0.8013640000000001,1,1.0,gain,0.5,0,1,2956.000000000017,1,0.5,3.0
537,17,2023-03-24_19h14.51.313,26,-88.788249,-1.2118,1.211751,1,1.0,gain,0.5,0,-1,1582.99999999997,1,0.5,3.5
538,17,2023-03-24_19h14.51.313,27,-89.198636,-0.8014,0.8013640000000001,1,-1.0,gain,0.5,0,-1,1325.999999999908,1,0.0,3.5
539,17,2023-03-24_19h14.51.313,28,1.211751,1.2118,1.211751,1,-1.0,gain,0.5,0,-1,1018.000000000029,0,0.0,3.5
540,17,2023-03-24_19h14.51.313,29,88.788249,1.2118,1.211751,1,1.0,gain,0.5,0,-1,1423.999999999978,0,0.5,4.0
541,17,2023-03-24_19h14.51.313,30,0.8013640000000001,0.8014,0.8013640000000001,1,-1.0,gain,0.5,0,-1,1884.000000000014,0,0.0,4.0
542,17,2023-03-24_19h14.51.313,31,-0.8013640000000001,-0.8014,0.8013640000000001,1,-1.0,gain,0.5,0,-1,1903.999999999883,1,0.0,4.0
543,17,2023-03-24_19h14.51.313,32,-1.211751,-1.2118,1.211751,1,-1.0,gain,0.5,0,-1,939.0000000000782,1,0.0,4.0
544,18,2023-03-24_17h58.37.487,1,-89.198636,-0.8014,0.8013640000000001,1,-1.0,gain,0.5,0,-1,1192.299999952411,1,0.0,0.0
545,18,2023-03-24_17h58.37.487,2,1.211751,1.2118,1.211751,1,1.0,gain,0.5,0,-1,1535.299999952258,0,0.5,0.5
546,18,2023-03-24_17h58.37.487,3,-88.788249,-1.2118,1.211751,1,-1.0,gain,0.5,0,-1,2553.700000047684,1,0.0,0.5
547,18,2023-03-24_17h58.37.487,4,0.8013640000000001,0.8014,0.8013640000000001,1,-1.0,gain,0.5,0,-1,1592.299999952274,0,0.0,0.5
548,18,2023-03-24_17h58.37.487,5,89.198636,0.8014,0.8013640000000001,1,1.0,gain,0.5,0,1,1585.799999952314,1,0.5,1.0
549,18,2023-03-24_17h58.37.487,6,-1.211751,-1.2118,1.211751,1,1.0,gain,0.5,0,1,1444.70000004776,0,0.5,1.5
550,18,2023-03-24_17h58.37.487,7,-0.8013640000000001,-0.8014,0.8013640000000001,1,-1.0,gain,0.5,0,1,1539.200000047686,0,0.0,1.5
551,18,2023-03-24_17h58.37.487,8,88.788249,1.2118,1.211751,1,1.0,gain,0.5,0,-1,2639.499999999998,0,0.5,2.0
552,18,2023-03-24_17h58.37.487,9,-0.8013640000000001,-0.8014,0.8013640000000001,1,-1.0,gain,0.5,0,-1,2117.099999904667,1,0.0,2.0
553,18,2023-03-24_17h58.37.487,10,-88.788249,-1.2118,1.211751,1,1.0,gain,0.5,0,1,2507.20000004776,0,0.5,2.5
554,18,2023-03-24_17h58.37.487,11,0.8013640000000001,0.8014,0.8013640000000001,1,1.0,gain,0.5,0,1,2606.299999952398,1,0.5,3.0
555,18,2023-03-24_17h58.37.487,12,89.198636,0.8014,0.8013640000000001,1,1.0,gain,0.5,0,-1,2183.199999928547,0,0.5,3.5
556,18,2023-03-24_17h58.37.487,13,-1.211751,-1.2118,1.211751,1,-1.0,gain,0.5,0,-1,2124.400000095193,1,0.0,3.5
557,18,2023-03-24_17h58.37.487,14,-89.198636,-0.8014,0.8013640000000001,1,-1.0,gain,0.5,0,1,1988.499999999931,0,0.0,3.5
558,18,2023-03-24_17h58.37.487,15,1.211751,1.2118,1.211751,1,1.0,gain,0.5,0,1,1705.700000047727,1,0.5,4.0
559,18,2023-03-24_17h58.37.487,16,88.788249,1.2118,1.211751,1,1.0,gain,0.5,0,-1,2299.8000000714,0,0.5,4.5
560,18,2023-03-24_17h58.37.487,17,-1.211751,-1.2118,1.211751,1,1.0,gain,0.5,0,1,2033.700000047702,0,0.5,5.0
561,18,2023-03-24_17h58.37.487,18,88.788249,1.2118,1.211751,1,-1.0,gain,0.5,0,1,1983.999999999924,1,0.0,5.0
562,18,2023-03-24_17h58.37.487,19,-89.198636,-0.8014,0.8013640000000001,1,-1.0,gain,0.5,0,-1,1302.600000023858,1,0.0,5.0
563,18,2023-03-24_17h58.37.487,20,-0.8013640000000001,-0.8014,0.8013640000000001,1,1.0,gain,0.5,0,1,1150.299999952494,0,0.5,5.5
564,18,2023-03-24_17h58.37.487,21,-88.788249,-1.2118,1.211751,1,1.0,gain,0.5,0,-1,1272.700000047507,1,0.5,6.0
565,18,2023-03-24_17h58.37.487,22,89.198636,0.8014,0.8013640000000001,1,1.0,gain,0.5,0,1,1000.600000023724,1,0.5,6.5
566,18,2023-03-24_17h58.37.487,23,1.211751,1.2118,1.211751,1,1.0,gain,0.5,0,1,1969.000000000051,1,0.5,7.0
567,18,2023-03-24_17h58.37.487,24,0.8013640000000001,0.8014,0.8013640000000001,1,-1.0,gain,0.5,0,1,1586.000000000013,1,0.0,7.0
568,18,2023-03-24_17h58.37.487,25,1.211751,1.2118,1.211751,1,1.0,gain,0.5,0,1,2321.600000023636,1,0.5,7.5
569,18,2023-03-24_17h58.37.487,26,-0.8013640000000001,-0.8014,0.8013640000000001,1,1.0,gain,0.5,0,1,977.4999999999636,0,0.5,8.0
570,18,2023-03-24_17h58.37.487,27,-89.198636,-0.8014,0.8013640000000001,1,1.0,gain,0.5,0,-1,2154.999999999973,1,0.5,8.5
571,18,2023-03-24_17h58.37.487,28,88.788249,1.2118,1.211751,1,1.0,gain,0.5,0,-1,1367.299999952138,0,0.5,9.0
572,18,2023-03-24_17h58.37.487,29,-88.788249,-1.2118,1.211751,1,1.0,gain,0.5,0,-1,1508.600000023762,1,0.5,9.5
573,18,2023-03-24_17h58.37.487,30,-1.211751,-1.2118,1.211751,1,-1.0,gain,0.5,0,-1,1851.099999904591,1,0.0,9.5
574,18,2023-03-24_17h58.37.487,31,89.198636,0.8014,0.8013640000000001,1,-1.0,gain,0.5,0,-1,1350.200000047835,0,0.0,9.5
575,18,2023-03-24_17h58.37.487,32,0.8013640000000001,0.8014,0.8013640000000001,1,-1.0,gain,0.5,0,1,1750.999999999976,1,0.0,9.5
576,19,2023-03-27_17h06.47.528,1,-1.211751,-1.2118,1.211751,1,1.0,loss,-0.5,16,-1,672.0000000000255,1,-0.0,16.0
577,19,2023-03-27_17h06.47.528,2,-88.788249,-1.2118,1.211751,1,1.0,loss,-0.5,16,1,750.9999999999764,0,-0.0,16.0
578,19,2023-03-27_17h06.47.528,3,1.211751,1.2118,1.211751,1,1.0,loss,-0.5,16,1,1642.000000000053,1,-0.0,16.0
579,19,2023-03-27_17h06.47.528,4,89.198636,0.8014,0.8013640000000001,1,1.0,loss,-0.5,16,1,1410.000000000082,1,-0.0,16.0
580,19,2023-03-27_17h06.47.528,5,0.8013640000000001,0.8014,0.8013640000000001,1,1.0,loss,-0.5,16,-1,1372.999999999934,0,-0.0,16.0
581,19,2023-03-27_17h06.47.528,6,88.788249,1.2118,1.211751,1,1.0,loss,-0.5,16,-1,1337.999999999965,0,-0.0,16.0
582,19,2023-03-27_17h06.47.528,7,-0.8013640000000001,-0.8014,0.8013640000000001,1,-1.0,loss,-0.5,16,-1,2210.000000000036,1,-0.5,15.5
583,19,2023-03-27_17h06.47.528,8,-89.198636,-0.8014,0.8013640000000001,1,-1.0,loss,-0.5,16,-1,736.9999999999663,1,-0.5,15.0
584,19,2023-03-27_17h06.47.528,9,88.788249,1.2118,1.211751,1,-1.0,loss,-0.5,16,-1,756.9999999999482,0,-0.5,14.5
585,19,2023-03-27_17h06.47.528,10,-1.211751,-1.2118,1.211751,1,-1.0,loss,-0.5,16,1,1441.999999999894,0,-0.5,14.0
586,19,2023-03-27_17h06.47.528,11,89.198636,0.8014,0.8013640000000001,1,-1.0,loss,-0.5,16,1,1059.999999999945,1,-0.5,13.5
587,19,2023-03-27_17h06.47.528,12,-0.8013640000000001,-0.8014,0.8013640000000001,1,1.0,loss,-0.5,16,1,738.0000000000564,0,-0.0,13.5
588,19,2023-03-27_17h06.47.528,13,-88.788249,-1.2118,1.211751,1,-1.0,loss,-0.5,16,-1,666.9999999999163,1,-0.5,13.0
589,19,2023-03-27_17h06.47.528,14,1.211751,1.2118,1.211751,1,1.0,loss,-0.5,16,-1,936.999999999898,0,-0.0,13.0
590,19,2023-03-27_17h06.47.528,15,-89.198636,-0.8014,0.8013640000000001,1,1.0,loss,-0.5,16,-1,640.999999999849,1,-0.0,13.0
591,19,2023-03-27_17h06.47.528,16,0.8013640000000001,0.8014,0.8013640000000001,1,1.0,loss,-0.5,16,1,1425.000000000182,1,-0.0,13.0
592,19,2023-03-27_17h06.47.528,17,0.8013640000000001,0.8014,0.8013640000000001,1,1.0,loss,-0.5,16,1,1844.000000000051,1,-0.0,13.0
593,19,2023-03-27_17h06.47.528,18,88.788249,1.2118,1.211751,1,1.0,loss,-0.5,16,-1,867.9999999999382,0,-0.0,13.0
594,19,2023-03-27_17h06.47.528,19,-89.198636,-0.8014,0.8013640000000001,1,-1.0,loss,-0.5,16,1,1658.999999999878,0,-0.5,12.5
595,19,2023-03-27_17h06.47.528,20,-0.8013640000000001,-0.8014,0.8013640000000001,1,-1.0,loss,-0.5,16,-1,592.0000000000982,1,-0.5,12.0
596,19,2023-03-27_17h06.47.528,21,-1.211751,-1.2118,1.211751,1,1.0,loss,-0.5,16,1,558.9999999999691,0,-0.0,12.0
597,19,2023-03-27_17h06.47.528,22,1.211751,1.2118,1.211751,1,-1.0,loss,-0.5,16,-1,557.9999999999927,0,-0.5,11.5
598,19,2023-03-27_17h06.47.528,23,-88.788249,-1.2118,1.211751,1,1.0,loss,-0.5,16,-1,1376.000000000203,1,-0.0,11.5
599,19,2023-03-27_17h06.47.528,24,89.198636,0.8014,0.8013640000000001,1,1.0,loss,-0.5,16,1,2132.000000000062,1,-0.0,11.5
600,19,2023-03-27_17h06.47.528,25,-1.211751,-1.2118,1.211751,1,-1.0,loss,-0.5,16,1,1538.999999999987,0,-0.5,11.0
601,19,2023-03-27_17h06.47.528,26,-0.8013640000000001,-0.8014,0.8013640000000001,1,-1.0,loss,-0.5,16,1,1125.0,0,-0.5,10.5
602,19,2023-03-27_17h06.47.528,27,88.788249,1.2118,1.211751,1,1.0,loss,-0.5,16,-1,1326.000000000022,0,-0.0,10.5
603,19,2023-03-27_17h06.47.528,28,1.211751,1.2118,1.211751,1,-1.0,loss,-0.5,16,1,853.0000000000655,1,-0.5,10.0
604,19,2023-03-27_17h06.47.528,29,-89.198636,-0.8014,0.8013640000000001,1,-1.0,loss,-0.5,16,-1,986.9999999998528,1,-0.5,9.5
605,19,2023-03-27_17h06.47.528,30,-88.788249,-1.2118,1.211751,1,-1.0,loss,-0.5,16,-1,372.0000000000709,1,-0.5,9.0
606,19,2023-03-27_17h06.47.528,31,0.8013640000000001,0.8014,0.8013640000000001,1,-1.0,loss,-0.5,16,1,752.9999999999291,1,-0.5,8.5
607,19,2023-03-27_17h06.47.528,32,89.198636,0.8014,0.8013640000000001,1,1.0,loss,-0.5,16,1,542.9999999998927,1,-0.0,8.5
608,20,2023-03-27_17h54.32.244,1,-89.198636,-0.8014,0.8013640000000001,1,-1.0,loss,-0.5,16,1,1794.200000047681,0,-0.5,15.5
609,20,2023-03-27_17h54.32.244,2,-88.788249,-1.2118,1.211751,1,-1.0,loss,-0.5,16,1,1227.400000095372,0,-0.5,15.0
610,20,2023-03-27_17h54.32.244,3,89.198636,0.8014,0.8013640000000001,1,-1.0,loss,-0.5,16,1,2089.000000000055,1,-0.5,14.5
611,20,2023-03-27_17h54.32.244,4,0.8013640000000001,0.8014,0.8013640000000001,1,-1.0,loss,-0.5,16,1,2382.800000071484,1,-0.5,14.0
612,20,2023-03-27_17h54.32.244,5,1.211751,1.2118,1.211751,1,-1.0,loss,-0.5,16,1,802.10000002387,1,-0.5,13.5
613,20,2023-03-27_17h54.32.244,6,-1.211751,-1.2118,1.211751,1,-1.0,loss,-0.5,16,-1,1426.499999999919,1,-0.5,13.0
614,20,2023-03-27_17h54.32.244,7,88.788249,1.2118,1.211751,1,1.0,loss,-0.5,16,-1,1219.299999952341,0,-0.0,13.0
615,20,2023-03-27_17h54.32.244,8,-0.8013640000000001,-0.8014,0.8013640000000001,1,-1.0,loss,-0.5,16,-1,1469.499999999925,1,-0.5,12.5
616,20,2023-03-27_17h54.32.244,9,-0.8013640000000001,-0.8014,0.8013640000000001,1,-1.0,loss,-0.5,16,-1,926.10000002378,1,-0.5,12.0
617,20,2023-03-27_17h54.32.244,10,89.198636,0.8014,0.8013640000000001,1,-1.0,loss,-0.5,16,1,1186.199999928476,1,-0.5,11.5
618,20,2023-03-27_17h54.32.244,11,0.8013640000000001,0.8014,0.8013640000000001,1,1.0,loss,-0.5,16,-1,1518.699999928458,0,-0.0,11.5
619,20,2023-03-27_17h54.32.244,12,88.788249,1.2118,1.211751,1,-1.0,loss,-0.5,16,1,1242.999999999938,1,-0.5,11.0
620,20,2023-03-27_17h54.32.244,13,-88.788249,-1.2118,1.211751,1,-1.0,loss,-0.5,16,-1,2604.300000071589,1,-0.5,10.5
621,20,2023-03-27_17h54.32.244,14,-1.211751,-1.2118,1.211751,1,-1.0,loss,-0.5,16,-1,1202.699999928427,1,-0.5,10.0
622,20,2023-03-27_17h54.32.244,15,1.211751,1.2118,1.211751,1,-1.0,loss,-0.5,16,1,1085.699999928465,1,-0.5,9.5
623,20,2023-03-27_17h54.32.244,16,-89.198636,-0.8014,0.8013640000000001,1,-1.0,loss,-0.5,16,-1,1022.299999952338,1,-0.5,9.0
624,20,2023-03-27_17h54.32.244,17,1.211751,1.2118,1.211751,1,-1.0,loss,-0.5,16,1,1158.600000023853,1,-0.5,8.5
625,20,2023-03-27_17h54.32.244,18,0.8013640000000001,0.8014,0.8013640000000001,1,-1.0,loss,-0.5,16,1,1114.000000000033,1,-0.5,8.0
626,20,2023-03-27_17h54.32.244,19,89.198636,0.8014,0.8013640000000001,1,1.0,loss,-0.5,16,-1,1192.299999952411,0,-0.0,8.0
627,20,2023-03-27_17h54.32.244,20,-89.198636,-0.8014,0.8013640000000001,1,1.0,loss,-0.5,16,1,754.3999999761581,0,-0.0,8.0
628,20,2023-03-27_17h54.32.244,21,-1.211751,-1.2118,1.211751,1,1.0,loss,-0.5,16,1,940.7999999523328,0,-0.0,8.0
629,20,2023-03-27_17h54.32.244,22,-88.788249,-1.2118,1.211751,1,-1.0,loss,-0.5,16,-1,807.2999999521926,1,-0.5,7.5
630,20,2023-03-27_17h54.32.244,23,88.788249,1.2118,1.211751,1,1.0,loss,-0.5,16,-1,1336.19999992834,0,-0.0,7.5
631,20,2023-03-27_17h54.32.244,24,-0.8013640000000001,-0.8014,0.8013640000000001,1,1.0,loss,-0.5,16,1,935.7000000477456,0,-0.0,7.5
632,20,2023-03-27_17h54.32.244,25,-88.788249,-1.2118,1.211751,1,1.0,loss,-0.5,16,1,954.1000000238,0,-0.0,7.5
633,20,2023-03-27_17h54.32.244,26,-89.198636,-0.8014,0.8013640000000001,1,1.0,loss,-0.5,16,1,1107.900000095242,0,-0.0,7.5
634,20,2023-03-27_17h54.32.244,27,0.8013640000000001,0.8014,0.8013640000000001,1,-1.0,loss,-0.5,16,1,851.5999999046926,1,-0.5,7.0
635,20,2023-03-27_17h54.32.244,28,-0.8013640000000001,-0.8014,0.8013640000000001,1,1.0,loss,-0.5,16,1,1202.700000047798,0,-0.0,7.0
636,20,2023-03-27_17h54.32.244,29,88.788249,1.2118,1.211751,1,1.0,loss,-0.5,16,-1,648.2000000478365,0,-0.0,7.0
637,20,2023-03-27_17h54.32.244,30,89.198636,0.8014,0.8013640000000001,1,-1.0,loss,-0.5,16,1,1202.599999904578,1,-0.5,6.5
638,20,2023-03-27_17h54.32.244,31,1.211751,1.2118,1.211751,1,-1.0,loss,-0.5,16,1,994.5000000000164,1,-0.5,6.0
639,20,2023-03-27_17h54.32.244,32,-1.211751,-1.2118,1.211751,1,1.0,loss,-0.5,16,1,752.2999999523563,0,-0.0,6.0
640,21,2023-03-26_10h49.23.197,1,89.198636,0.8014,0.8013640000000001,1,-1.0,loss,-0.5,16,1,755.4999999999836,1,-0.5,15.5
641,21,2023-03-26_10h49.23.197,2,88.788249,1.2118,1.211751,1,1.0,loss,-0.5,16,-1,594.8000000118441,0,-0.0,15.5
642,21,2023-03-26_10h49.23.197,3,-0.8013640000000001,-0.8014,0.8013640000000001,1,-1.0,loss,-0.5,16,1,2217.600000023822,0,-0.5,15.0
643,21,2023-03-26_10h49.23.197,4,1.211751,1.2118,1.211751,1,1.0,loss,-0.5,16,1,3650.199999988104,1,-0.0,15.0
644,21,2023-03-26_10h49.23.197,5,-89.198636,-0.8014,0.8013640000000001,1,1.0,loss,-0.5,16,-1,851.8000000119628,1,-0.0,15.0
645,21,2023-03-26_10h49.23.197,6,-88.788249,-1.2118,1.211751,1,-1.0,loss,-0.5,16,1,760.3000000119664,0,-0.5,14.5
646,21,2023-03-26_10h49.23.197,7,-1.211751,-1.2118,1.211751,1,1.0,loss,-0.5,16,1,2086.099999994076,0,-0.0,14.5
647,21,2023-03-26_10h49.23.197,8,0.8013640000000001,0.8014,0.8013640000000001,1,-1.0,loss,-0.5,16,-1,1000.900000005913,0,-0.5,14.0
648,21,2023-03-26_10h49.23.197,9,0.8013640000000001,0.8014,0.8013640000000001,1,1.0,loss,-0.5,16,-1,1051.300000011906,0,-0.0,14.0
649,21,2023-03-26_10h49.23.197,10,88.788249,1.2118,1.211751,1,1.0,loss,-0.5,16,1,934.89999997621,1,-0.0,14.0
650,21,2023-03-26_10h49.23.197,11,-1.211751,-1.2118,1.211751,1,1.0,loss,-0.5,16,-1,1184.400000006008,1,-0.0,14.0
651,21,2023-03-26_10h49.23.197,12,89.198636,0.8014,0.8013640000000001,1,-1.0,loss,-0.5,16,-1,1504.000000000019,0,-0.5,13.5
652,21,2023-03-26_10h49.23.197,13,-0.8013640000000001,-0.8014,0.8013640000000001,1,-1.0,loss,-0.5,16,-1,1818.899999976111,1,-0.5,13.0
653,21,2023-03-26_10h49.23.197,14,-88.788249,-1.2118,1.211751,1,1.0,loss,-0.5,16,-1,2108.599999993999,1,-0.0,13.0
654,21,2023-03-26_10h49.23.197,15,1.211751,1.2118,1.211751,1,-1.0,loss,-0.5,16,-1,1583.29999998216,0,-0.5,12.5
655,21,2023-03-26_10h49.23.197,16,-89.198636,-0.8014,0.8013640000000001,1,-1.0,loss,-0.5,16,1,674.7000000178787,0,-0.5,12.0
656,21,2023-03-26_10h49.23.197,17,-0.8013640000000001,-0.8014,0.8013640000000001,1,-1.0,loss,-0.5,16,1,2639.999999999986,0,-0.5,11.5
657,21,2023-03-26_10h49.23.197,18,0.8013640000000001,0.8014,0.8013640000000001,1,-1.0,loss,-0.5,16,-1,1088.300000011941,0,-0.5,11.0
658,21,2023-03-26_10h49.23.197,19,-1.211751,-1.2118,1.211751,1,-1.0,loss,-0.5,16,1,2345.400000006066,0,-0.5,10.5
659,21,2023-03-26_10h49.23.197,20,1.211751,1.2118,1.211751,1,-1.0,loss,-0.5,16,1,800.9000000059814,1,-0.5,10.0
660,21,2023-03-26_10h49.23.197,21,89.198636,0.8014,0.8013640000000001,1,1.0,loss,-0.5,16,1,817.6999999880081,1,-0.0,10.0
661,21,2023-03-26_10h49.23.197,22,88.788249,1.2118,1.211751,1,-1.0,loss,-0.5,16,-1,867.6000000237991,0,-0.5,9.5
662,21,2023-03-26_10h49.23.197,23,-88.788249,-1.2118,1.211751,1,-1.0,loss,-0.5,16,1,685.0999999940086,0,-0.5,9.0
663,21,2023-03-26_10h49.23.197,24,-89.198636,-0.8014,0.8013640000000001,1,-1.0,loss,-0.5,16,-1,1235.400000005939,1,-0.5,8.5
664,21,2023-03-26_10h49.23.197,25,-88.788249,-1.2118,1.211751,1,-1.0,loss,-0.5,16,-1,884.6000000238519,1,-0.5,8.0
665,21,2023-03-26_10h49.23.197,26,-89.198636,-0.8014,0.8013640000000001,1,-1.0,loss,-0.5,16,1,1274.599999994052,0,-0.5,7.5
666,21,2023-03-26_10h49.23.197,27,-0.8013640000000001,-0.8014,0.8013640000000001,1,-1.0,loss,-0.5,16,1,967.9999999999608,0,-0.5,7.0
667,21,2023-03-26_10h49.23.197,28,0.8013640000000001,0.8014,0.8013640000000001,1,-1.0,loss,-0.5,16,-1,1543.000000000006,0,-0.5,6.5
668,21,2023-03-26_10h49.23.197,29,-1.211751,-1.2118,1.211751,1,1.0,loss,-0.5,16,-1,851.299999982075,1,-0.0,6.5
669,21,2023-03-26_10h49.23.197,30,88.788249,1.2118,1.211751,1,1.0,loss,-0.5,16,1,1918.200000017919,1,-0.0,6.5
670,21,2023-03-26_10h49.23.197,31,1.211751,1.2118,1.211751,1,1.0,loss,-0.5,16,1,900.4999999999654,1,-0.0,6.5
671,21,2023-03-26_10h49.23.197,32,89.198636,0.8014,0.8013640000000001,1,-1.0,loss,-0.5,16,1,2467.700000017885,1,-0.5,6.0
672,22,2023-03-25_15h14.28.890,1,-89.198636,-0.8014,0.8013640000000001,1,-1.0,gain,0.5,0,-1,1424.800000071514,1,0.0,0.0
673,22,2023-03-25_15h14.28.890,2,88.788249,1.2118,1.211751,1,-1.0,gain,0.5,0,1,1288.600000023848,1,0.0,0.0
674,22,2023-03-25_15h14.28.890,3,-88.788249,-1.2118,1.211751,1,-1.0,gain,0.5,0,-1,1600.100000023758,1,0.0,0.0
675,22,2023-03-25_15h14.28.890,4,89.198636,0.8014,0.8013640000000001,1,-1.0,gain,0.5,0,1,1046.000000000049,1,0.0,0.0
676,22,2023-03-25_15h14.28.890,5,-1.211751,-1.2118,1.211751,1,-1.0,gain,0.5,0,-1,1938.499999999976,1,0.0,0.0
677,22,2023-03-25_15h14.28.890,6,1.211751,1.2118,1.211751,1,1.0,gain,0.5,0,1,1494.800000071564,1,0.5,0.5
678,22,2023-03-25_15h14.28.890,7,-0.8013640000000001,-0.8014,0.8013640000000001,1,1.0,gain,0.5,0,-1,2117.100000023925,1,0.5,1.0
679,22,2023-03-25_15h14.28.890,8,0.8013640000000001,0.8014,0.8013640000000001,1,1.0,gain,0.5,0,-1,1454.200000047763,0,0.5,1.5
680,22,2023-03-25_15h14.28.890,9,88.788249,1.2118,1.211751,1,1.0,gain,0.5,0,-1,2122.899999976198,0,0.5,2.0
681,22,2023-03-25_15h14.28.890,10,-89.198636,-0.8014,0.8013640000000001,1,1.0,gain,0.5,0,-1,1560.500000000047,1,0.5,2.5
682,22,2023-03-25_15h14.28.890,11,-1.211751,-1.2118,1.211751,1,1.0,gain,0.5,0,1,1724.299999952336,0,0.5,3.0
683,22,2023-03-25_15h14.28.890,12,-88.788249,-1.2118,1.211751,1,-1.0,gain,0.5,0,-1,2550.100000023804,1,0.0,3.0
684,22,2023-03-25_15h14.28.890,13,-0.8013640000000001,-0.8014,0.8013640000000001,1,1.0,gain,0.5,0,-1,1250.399999976139,1,0.5,3.5
685,22,2023-03-25_15h14.28.890,14,1.211751,1.2118,1.211751,1,-1.0,gain,0.5,0,1,1218.999999999937,1,0.0,3.5
686,22,2023-03-25_15h14.28.890,15,0.8013640000000001,0.8014,0.8013640000000001,1,1.0,gain,0.5,0,1,1726.700000047686,1,0.5,4.0
687,22,2023-03-25_15h14.28.890,16,89.198636,0.8014,0.8013640000000001,1,-1.0,gain,0.5,0,-1,2042.800000071566,0,0.0,4.0
688,22,2023-03-25_15h14.28.890,17,0.8013640000000001,0.8014,0.8013640000000001,1,1.0,gain,0.5,0,-1,1286.600000023896,0,0.5,4.5
689,22,2023-03-25_15h14.28.890,18,-89.198636,-0.8014,0.8013640000000001,1,1.0,gain,0.5,0,1,3022.200000047633,0,0.5,5.0
690,22,2023-03-25_15h14.28.890,19,-88.788249,-1.2118,1.211751,1,1.0,gain,0.5,0,-1,2684.799999952361,1,0.5,5.5
691,22,2023-03-25_15h14.28.890,20,-1.211751,-1.2118,1.211751,1,1.0,gain,0.5,0,-1,1410.50000000007,1,0.5,6.0
692,22,2023-03-25_15h14.28.890,21,88.788249,1.2118,1.211751,1,-1.0,gain,0.5,0,-1,2712.699999928532,0,0.0,6.0
693,22,2023-03-25_15h14.28.890,22,-0.8013640000000001,-0.8014,0.8013640000000001,1,-1.0,gain,0.5,0,-1,1573.499999999967,1,0.0,6.0
694,22,2023-03-25_15h14.28.890,23,89.198636,0.8014,0.8013640000000001,1,1.0,gain,0.5,0,-1,2369.900000095299,0,0.5,6.5
695,22,2023-03-25_15h14.28.890,24,1.211751,1.2118,1.211751,1,-1.0,gain,0.5,0,1,1632.399999976087,1,0.0,6.5
696,22,2023-03-25_15h14.28.890,25,-89.198636,-0.8014,0.8013640000000001,1,-1.0,gain,0.5,0,-1,1338.699999928508,1,0.0,6.5
697,22,2023-03-25_15h14.28.890,26,89.198636,0.8014,0.8013640000000001,1,1.0,gain,0.5,0,-1,2272.600000023885,0,0.5,7.0
698,22,2023-03-25_15h14.28.890,27,88.788249,1.2118,1.211751,1,-1.0,gain,0.5,0,1,1909.800000071528,1,0.0,7.0
699,22,2023-03-25_15h14.28.890,28,-1.211751,-1.2118,1.211751,1,-1.0,gain,0.5,0,-1,1233.899999976074,1,0.0,7.0
700,22,2023-03-25_15h14.28.890,29,-88.788249,-1.2118,1.211751,1,-1.0,gain,0.5,0,1,2151.299999952357,0,0.0,7.0
701,22,2023-03-25_15h14.28.890,30,1.211751,1.2118,1.211751,1,1.0,gain,0.5,0,1,1255.500000000097,1,0.5,7.5
702,22,2023-03-25_15h14.28.890,31,-0.8013640000000001,-0.8014,0.8013640000000001,1,-1.0,gain,0.5,0,-1,2175.000000000068,1,0.0,7.5
703,22,2023-03-25_15h14.28.890,32,0.8013640000000001,0.8014,0.8013640000000001,1,-1.0,gain,0.5,0,1,1539.099999904693,1,0.0,7.5
704,23,2023-03-25_14h25.53.072,1,-88.788249,-1.2118,1.211751,1,-1.0,gain,0.5,0,-1,1738.799999952334,1,0.0,0.0
705,23,2023-03-25_14h25.53.072,2,89.198636,0.8014,0.8013640000000001,1,-1.0,gain,0.5,0,-1,2671.300000071369,0,0.0,0.0
706,23,2023-03-25_14h25.53.072,3,-89.198636,-0.8014,0.8013640000000001,1,1.0,gain,0.5,0,-1,2360.600000023851,1,0.5,0.5
707,23,2023-03-25_14h25.53.072,4,88.788249,1.2118,1.211751,1,-1.0,gain,0.5,0,1,945.6000000238872,1,0.0,0.5
708,23,2023-03-25_14h25.53.072,5,-0.8013640000000001,-0.8014,0.8013640000000001,1,-1.0,gain,0.5,0,-1,1200.599999904625,1,0.0,0.5
709,23,2023-03-25_14h25.53.072,6,1.211751,1.2118,1.211751,1,-1.0,gain,0.5,0,1,2637.500000000045,1,0.0,0.5
710,23,2023-03-25_14h25.53.072,7,-1.211751,-1.2118,1.211751,1,-1.0,gain,0.5,0,-1,1467.200000047569,1,0.0,0.5
711,23,2023-03-25_14h25.53.072,8,0.8013640000000001,0.8014,0.8013640000000001,1,1.0,gain,0.5,0,1,1150.399999976116,1,0.5,1.0
712,23,2023-03-25_14h25.53.072,9,89.198636,0.8014,0.8013640000000001,1,-1.0,gain,0.5,0,-1,1063.000000000102,0,0.0,1.0
713,23,2023-03-25_14h25.53.072,10,-1.211751,-1.2118,1.211751,1,1.0,gain,0.5,0,1,2062.100000023748,0,0.5,1.5
714,23,2023-03-25_14h25.53.072,11,-0.8013640000000001,-0.8014,0.8013640000000001,1,-1.0,gain,0.5,0,-1,1134.100000023864,1,0.0,1.5
715,23,2023-03-25_14h25.53.072,12,1.211751,1.2118,1.211751,1,-1.0,gain,0.5,0,1,942.6000000237308,1,0.0,1.5
716,23,2023-03-25_14h25.53.072,13,0.8013640000000001,0.8014,0.8013640000000001,1,-1.0,gain,0.5,0,1,1649.39999997614,1,0.0,1.5
717,23,2023-03-25_14h25.53.072,14,88.788249,1.2118,1.211751,1,-1.0,gain,0.5,0,1,1317.399999976033,1,0.0,1.5
718,23,2023-03-25_14h25.53.072,15,-88.788249,-1.2118,1.211751,1,-1.0,gain,0.5,0,-1,2853.800000071488,1,0.0,1.5
719,23,2023-03-25_14h25.53.072,16,-89.198636,-0.8014,0.8013640000000001,1,1.0,gain,0.5,0,-1,712.3999999760144,1,0.5,2.0
720,23,2023-03-25_14h25.53.072,17,1.211751,1.2118,1.211751,1,-1.0,gain,0.5,0,1,1167.29999995232,1,0.0,2.0
721,23,2023-03-25_14h25.53.072,18,88.788249,1.2118,1.211751,1,-1.0,gain,0.5,0,1,1119.600000023866,1,0.0,2.0
722,23,2023-03-25_14h25.53.072,19,-89.198636,-0.8014,0.8013640000000001,1,-1.0,gain,0.5,0,-1,2051.200000047629,1,0.0,2.0
723,23,2023-03-25_14h25.53.072,20,-88.788249,-1.2118,1.211751,1,1.0,gain,0.5,0,-1,3532.799999952432,1,0.5,2.5
724,23,2023-03-25_14h25.53.072,21,0.8013640000000001,0.8014,0.8013640000000001,1,1.0,gain,0.5,0,-1,1611.799999952382,0,0.5,3.0
725,23,2023-03-25_14h25.53.072,22,89.198636,0.8014,0.8013640000000001,1,-1.0,gain,0.5,0,-1,1367.100000023811,0,0.0,3.0
726,23,2023-03-25_14h25.53.072,23,-0.8013640000000001,-0.8014,0.8013640000000001,1,-1.0,gain,0.5,0,-1,1542.199999928471,1,0.0,3.0
727,23,2023-03-25_14h25.53.072,24,-1.211751,-1.2118,1.211751,1,1.0,gain,0.5,0,1,2220.600000023751,0,0.5,3.5
728,23,2023-03-25_14h25.53.072,25,-89.198636,-0.8014,0.8013640000000001,1,-1.0,gain,0.5,0,-1,1817.600000023959,1,0.0,3.5
729,23,2023-03-25_14h25.53.072,26,-88.788249,-1.2118,1.211751,1,1.0,gain,0.5,0,-1,945.1000000237856,1,0.5,4.0
730,23,2023-03-25_14h25.53.072,27,1.211751,1.2118,1.211751,1,1.0,gain,0.5,0,-1,1094.000000000051,0,0.5,4.5
731,23,2023-03-25_14h25.53.072,28,88.788249,1.2118,1.211751,1,1.0,gain,0.5,0,-1,1520.100000023831,0,0.5,5.0
732,23,2023-03-25_14h25.53.072,29,-0.8013640000000001,-0.8014,0.8013640000000001,1,1.0,gain,0.5,0,1,1020.999999999958,0,0.5,5.5
733,23,2023-03-25_14h25.53.072,30,-1.211751,-1.2118,1.211751,1,1.0,gain,0.5,0,-1,1834.500000000162,1,0.5,6.0
734,23,2023-03-25_14h25.53.072,31,0.8013640000000001,0.8014,0.8013640000000001,1,1.0,gain,0.5,0,-1,2312.400000095522,0,0.5,6.5
735,23,2023-03-25_14h25.53.072,32,89.198636,0.8014,0.8013640000000001,1,1.0,gain,0.5,0,1,1792.200000047615,1,0.5,7.0
736,24,2023-03-25_13h53.57.457,1,-0.8013640000000001,-0.8014,0.8013640000000001,1,1.0,gain,0.5,0,-1,584.9000000357591,1,0.5,0.5
737,24,2023-03-25_13h53.57.457,2,-89.198636,-0.8014,0.8013640000000001,1,1.0,gain,0.5,0,-1,1168.999999999983,1,0.5,1.0
738,24,2023-03-25_13h53.57.457,3,-88.788249,-1.2118,1.211751,1,-1.0,gain,0.5,0,1,1184.60000002392,0,0.0,1.0
739,24,2023-03-25_13h53.57.457,4,88.788249,1.2118,1.211751,1,-1.0,gain,0.5,0,1,1902.000000000044,1,0.0,1.0
740,24,2023-03-25_13h53.57.457,5,0.8013640000000001,0.8014,0.8013640000000001,1,-1.0,gain,0.5,0,1,920.399999976098,1,0.0,1.0
741,24,2023-03-25_13h53.57.457,6,89.198636,0.8014,0.8013640000000001,1,1.0,gain,0.5,0,-1,2535.100000023817,0,0.5,1.5
742,24,2023-03-25_13h53.57.457,7,-1.211751,-1.2118,1.211751,1,-1.0,gain,0.5,0,1,1000.899999976241,0,0.0,1.5
743,24,2023-03-25_13h53.57.457,8,1.211751,1.2118,1.211751,1,-1.0,gain,0.5,0,1,886.1999999880936,1,0.0,1.5
744,24,2023-03-25_13h53.57.457,9,-88.788249,-1.2118,1.211751,1,1.0,gain,0.5,0,1,567.8000000119711,0,0.5,2.0
745,24,2023-03-25_13h53.57.457,10,88.788249,1.2118,1.211751,1,-1.0,gain,0.5,0,1,917.80000001188,1,0.0,2.0
746,24,2023-03-25_13h53.57.457,11,-0.8013640000000001,-0.8014,0.8013640000000001,1,1.0,gain,0.5,0,1,651.8999999761945,0,0.5,2.5
747,24,2023-03-25_13h53.57.457,12,89.198636,0.8014,0.8013640000000001,1,1.0,gain,0.5,0,-1,885.4999999999791,0,0.5,3.0
748,24,2023-03-25_13h53.57.457,13,-1.211751,-1.2118,1.211751,1,1.0,gain,0.5,0,1,2951.799999952414,0,0.5,3.5
749,24,2023-03-25_13h53.57.457,14,0.8013640000000001,0.8014,0.8013640000000001,1,-1.0,gain,0.5,0,-1,735.7999999522917,0,0.0,3.5
750,24,2023-03-25_13h53.57.457,15,1.211751,1.2118,1.211751,1,1.0,gain,0.5,0,1,3733.599999964213,1,0.5,4.0
751,24,2023-03-25_13h53.57.457,16,-89.198636,-0.8014,0.8013640000000001,1,-1.0,gain,0.5,0,1,1735.19999998814,0,0.0,4.0
752,24,2023-03-25_13h53.57.457,17,-89.198636,-0.8014,0.8013640000000001,1,-1.0,gain,0.5,0,1,2831.600000023855,0,0.0,4.0
753,24,2023-03-25_13h53.57.457,18,88.788249,1.2118,1.211751,1,1.0,gain,0.5,0,1,967.3999999761236,1,0.5,4.5
754,24,2023-03-25_13h53.57.457,19,0.8013640000000001,0.8014,0.8013640000000001,1,-1.0,gain,0.5,0,1,1083.600000023921,1,0.0,4.5
755,24,2023-03-25_13h53.57.457,20,1.211751,1.2118,1.211751,1,-1.0,gain,0.5,0,1,698.89999997622,1,0.0,4.5
756,24,2023-03-25_13h53.57.457,21,89.198636,0.8014,0.8013640000000001,1,-1.0,gain,0.5,0,-1,1568.600000023821,0,0.0,4.5
757,24,2023-03-25_13h53.57.457,22,-1.211751,-1.2118,1.211751,1,1.0,gain,0.5,0,1,1000.600000023837,0,0.5,5.0
758,24,2023-03-25_13h53.57.457,23,-0.8013640000000001,-0.8014,0.8013640000000001,1,-1.0,gain,0.5,0,1,697.6999999880036,0,0.0,5.0
759,24,2023-03-25_13h53.57.457,24,-88.788249,-1.2118,1.211751,1,1.0,gain,0.5,0,1,2450.800000011895,0,0.5,5.5
760,24,2023-03-25_13h53.57.457,25,-88.788249,-1.2118,1.211751,1,1.0,gain,0.5,0,1,1699.800000011919,0,0.5,6.0
761,24,2023-03-25_13h53.57.457,26,88.788249,1.2118,1.211751,1,-1.0,gain,0.5,0,-1,868.0000000000518,0,0.0,6.0
762,24,2023-03-25_13h53.57.457,27,1.211751,1.2118,1.211751,1,1.0,gain,0.5,0,1,2596.600000023841,1,0.5,6.5
763,24,2023-03-25_13h53.57.457,28,-1.211751,-1.2118,1.211751,1,1.0,gain,0.5,0,1,2556.199999988166,0,0.5,7.0
764,24,2023-03-25_13h53.57.457,29,0.8013640000000001,0.8014,0.8013640000000001,1,1.0,gain,0.5,0,1,918.1000000238556,1,0.5,7.5
765,24,2023-03-25_13h53.57.457,30,-0.8013640000000001,-0.8014,0.8013640000000001,1,-1.0,gain,0.5,0,1,1028.199999988146,0,0.0,7.5
766,24,2023-03-25_13h53.57.457,31,-89.198636,-0.8014,0.8013640000000001,1,1.0,gain,0.5,0,-1,1072.499999999991,1,0.5,8.0
767,24,2023-03-25_13h53.57.457,32,89.198636,0.8014,0.8013640000000001,1,1.0,gain,0.5,0,1,2375.200000047698,1,0.5,8.5
768,25,2023-03-24_19h44.40.252,1,1.211751,1.2118,1.211751,1,-1.0,gain,0.5,0,1,2047.699999928227,1,0.0,0.0
769,25,2023-03-24_19h44.40.252,2,-1.211751,-1.2118,1.211751,1,1.0,gain,0.5,0,-1,1723.399999976209,1,0.5,0.5
770,25,2023-03-24_19h44.40.252,3,-89.198636,-0.8014,0.8013640000000001,1,1.0,gain,0.5,0,1,2323.200000047564,0,0.5,1.0
771,25,2023-03-24_19h44.40.252,4,89.198636,0.8014,0.8013640000000001,1,1.0,gain,0.5,0,1,1245.80000007154,1,0.5,1.5
772,25,2023-03-24_19h44.40.252,5,-0.8013640000000001,-0.8014,0.8013640000000001,1,-1.0,gain,0.5,0,-1,1759.70000004736,1,0.0,1.5
773,25,2023-03-24_19h44.40.252,6,-88.788249,-1.2118,1.211751,1,1.0,gain,0.5,0,1,1542.099999904622,0,0.5,2.0
774,25,2023-03-24_19h44.40.252,7,0.8013640000000001,0.8014,0.8013640000000001,1,1.0,gain,0.5,0,1,1302.399999976387,1,0.5,2.5
775,25,2023-03-24_19h44.40.252,8,88.788249,1.2118,1.211751,1,-1.0,gain,0.5,0,-1,1608.399999975973,0,0.0,2.5
776,25,2023-03-24_19h44.40.252,9,88.788249,1.2118,1.211751,1,-1.0,gain,0.5,0,-1,1198.19999992842,0,0.0,2.5
777,25,2023-03-24_19h44.40.252,10,1.211751,1.2118,1.211751,1,1.0,gain,0.5,0,-1,2011.400000095364,0,0.5,3.0
778,25,2023-03-24_19h44.40.252,11,-88.788249,-1.2118,1.211751,1,-1.0,gain,0.5,0,1,1434.400000095138,0,0.0,3.0
779,25,2023-03-24_19h44.40.252,12,-89.198636,-0.8014,0.8013640000000001,1,-1.0,gain,0.5,0,-1,1906.899999976304,1,0.0,3.0
780,25,2023-03-24_19h44.40.252,13,89.198636,0.8014,0.8013640000000001,1,1.0,gain,0.5,0,1,1118.800000071587,1,0.5,3.5
781,25,2023-03-24_19h44.40.252,14,-1.211751,-1.2118,1.211751,1,1.0,gain,0.5,0,1,2691.200000047502,0,0.5,4.0
782,25,2023-03-24_19h44.40.252,15,-0.8013640000000001,-0.8014,0.8013640000000001,1,1.0,gain,0.5,0,1,1784.099999904356,0,0.5,4.5
783,25,2023-03-24_19h44.40.252,16,0.8013640000000001,0.8014,0.8013640000000001,1,1.0,gain,0.5,0,1,1584.899999976187,1,0.5,5.0
784,25,2023-03-24_19h44.40.252,17,-88.788249,-1.2118,1.211751,1,-1.0,gain,0.5,0,1,2000.500000000102,0,0.0,5.0
785,25,2023-03-24_19h44.40.252,18,0.8013640000000001,0.8014,0.8013640000000001,1,-1.0,gain,0.5,0,1,2652.499999999691,1,0.0,5.0
786,25,2023-03-24_19h44.40.252,19,-1.211751,-1.2118,1.211751,1,-1.0,gain,0.5,0,-1,3688.899999976002,1,0.0,5.0
787,25,2023-03-24_19h44.40.252,20,-89.198636,-0.8014,0.8013640000000001,1,1.0,gain,0.5,0,-1,1677.300000071682,1,0.5,5.5
788,25,2023-03-24_19h44.40.252,21,88.788249,1.2118,1.211751,1,1.0,gain,0.5,0,-1,2216.499999999996,0,0.5,6.0
789,25,2023-03-24_19h44.40.252,22,-0.8013640000000001,-0.8014,0.8013640000000001,1,1.0,gain,0.5,0,1,3208.100000023933,0,0.5,6.5
790,25,2023-03-24_19h44.40.252,23,89.198636,0.8014,0.8013640000000001,1,-1.0,gain,0.5,0,1,1883.799999952317,1,0.0,6.5
791,25,2023-03-24_19h44.40.252,24,1.211751,1.2118,1.211751,1,1.0,gain,0.5,0,-1,2086.999999999989,0,0.5,7.0
792,25,2023-03-24_19h44.40.252,25,-88.788249,-1.2118,1.211751,1,1.0,gain,0.5,0,1,2949.699999928271,0,0.5,7.5
793,25,2023-03-24_19h44.40.252,26,0.8013640000000001,0.8014,0.8013640000000001,1,1.0,gain,0.5,0,-1,2595.600000024206,0,0.5,8.0
794,25,2023-03-24_19h44.40.252,27,1.211751,1.2118,1.211751,1,-1.0,gain,0.5,0,-1,1319.199999928514,0,0.0,8.0
795,25,2023-03-24_19h44.40.252,28,-89.198636,-0.8014,0.8013640000000001,1,1.0,gain,0.5,0,1,3132.800000071256,0,0.5,8.5
796,25,2023-03-24_19h44.40.252,29,-1.211751,-1.2118,1.211751,1,1.0,gain,0.5,0,-1,3264.199999928223,1,0.5,9.0
797,25,2023-03-24_19h44.40.252,30,89.198636,0.8014,0.8013640000000001,1,-1.0,gain,0.5,0,1,1977.400000095713,1,0.0,9.0
798,25,2023-03-24_19h44.40.252,31,88.788249,1.2118,1.211751,1,1.0,gain,0.5,0,1,2563.299999952051,1,0.5,9.5
799,25,2023-03-24_19h44.40.252,32,-0.8013640000000001,-0.8014,0.8013640000000001,1,1.0,gain,0.5,0,-1,2794.499999999971,1,0.5,10.0
800,26,2023-03-26_14h51.13.412,1,89.198636,0.8014,0.8013640000000001,1,1.0,loss,-0.5,16,-1,2107.000000000028,0,-0.0,16.0
801,26,2023-03-26_14h51.13.412,2,-1.211751,-1.2118,1.211751,1,1.0,loss,-0.5,16,-1,1655.999999999949,1,-0.0,16.0
802,26,2023-03-26_14h51.13.412,3,-0.8013640000000001,-0.8014,0.8013640000000001,1,-1.0,loss,-0.5,16,1,2165.999999999997,0,-0.5,15.5
803,26,2023-03-26_14h51.13.412,4,88.788249,1.2118,1.211751,1,-1.0,loss,-0.5,16,1,1630.999999999972,1,-0.5,15.0
804,26,2023-03-26_14h51.13.412,5,-88.788249,-1.2118,1.211751,1,1.0,loss,-0.5,16,-1,2075.000000000159,1,-0.0,15.0
805,26,2023-03-26_14h51.13.412,6,-89.198636,-0.8014,0.8013640000000001,1,1.0,loss,-0.5,16,-1,1692.999999999984,1,-0.0,15.0
806,26,2023-03-26_14h51.13.412,7,1.211751,1.2118,1.211751,1,1.0,loss,-0.5,16,-1,2858.000000000061,0,-0.0,15.0
807,26,2023-03-26_14h51.13.412,8,0.8013640000000001,0.8014,0.8013640000000001,1,1.0,loss,-0.5,16,1,1726.999999999975,1,-0.0,15.0
808,26,2023-03-26_14h51.13.412,9,-89.198636,-0.8014,0.8013640000000001,1,1.0,loss,-0.5,16,-1,2267.000000000053,1,-0.0,15.0
809,26,2023-03-26_14h51.13.412,10,88.788249,1.2118,1.211751,1,1.0,loss,-0.5,16,-1,2365.000000000009,0,-0.0,15.0
810,26,2023-03-26_14h51.13.412,11,0.8013640000000001,0.8014,0.8013640000000001,1,1.0,loss,-0.5,16,-1,3055.999999999926,0,-0.0,15.0
811,26,2023-03-26_14h51.13.412,12,89.198636,0.8014,0.8013640000000001,1,-1.0,loss,-0.5,16,1,3449.999999999932,1,-0.5,14.5
812,26,2023-03-26_14h51.13.412,13,-1.211751,-1.2118,1.211751,1,-1.0,loss,-0.5,16,1,2477.999999999952,0,-0.5,14.0
813,26,2023-03-26_14h51.13.412,14,-0.8013640000000001,-0.8014,0.8013640000000001,1,-1.0,loss,-0.5,16,1,2015.999999999963,0,-0.5,13.5
814,26,2023-03-26_14h51.13.412,15,-88.788249,-1.2118,1.211751,1,-1.0,loss,-0.5,16,1,3140.999999999963,0,-0.5,13.0
815,26,2023-03-26_14h51.13.412,16,1.211751,1.2118,1.211751,1,1.0,loss,-0.5,16,-1,1831.999999999994,0,-0.0,13.0
816,26,2023-03-26_14h51.13.412,17,-89.198636,-0.8014,0.8013640000000001,1,-1.0,loss,-0.5,16,1,2125.999999999976,0,-0.5,12.5
817,26,2023-03-26_14h51.13.412,18,89.198636,0.8014,0.8013640000000001,1,1.0,loss,-0.5,16,-1,2462.999999999965,0,-0.0,12.5
818,26,2023-03-26_14h51.13.412,19,88.788249,1.2118,1.211751,1,1.0,loss,-0.5,16,1,2009.999999999991,1,-0.0,12.5
819,26,2023-03-26_14h51.13.412,20,0.8013640000000001,0.8014,0.8013640000000001,1,1.0,loss,-0.5,16,1,2999.000000000024,1,-0.0,12.5
820,26,2023-03-26_14h51.13.412,21,-0.8013640000000001,-0.8014,0.8013640000000001,1,-1.0,loss,-0.5,16,1,2115.000000000009,0,-0.5,12.0
821,26,2023-03-26_14h51.13.412,22,-1.211751,-1.2118,1.211751,1,1.0,loss,-0.5,16,1,2868.000000000052,0,-0.0,12.0
822,26,2023-03-26_14h51.13.412,23,-88.788249,-1.2118,1.211751,1,1.0,loss,-0.5,16,1,1798.999999999978,0,-0.0,12.0
823,26,2023-03-26_14h51.13.412,24,1.211751,1.2118,1.211751,1,-1.0,loss,-0.5,16,1,2161.000000000058,1,-0.5,11.5
824,26,2023-03-26_14h51.13.412,25,1.211751,1.2118,1.211751,1,1.0,loss,-0.5,16,1,1566.000000000031,1,-0.0,11.5
825,26,2023-03-26_14h51.13.412,26,-89.198636,-0.8014,0.8013640000000001,1,1.0,loss,-0.5,16,-1,1274.000000000001,1,-0.0,11.5
826,26,2023-03-26_14h51.13.412,27,-1.211751,-1.2118,1.211751,1,1.0,loss,-0.5,16,1,3717.999999999961,0,-0.0,11.5
827,26,2023-03-26_14h51.13.412,28,89.198636,0.8014,0.8013640000000001,1,-1.0,loss,-0.5,16,1,1258.000000000038,1,-0.5,11.0
828,26,2023-03-26_14h51.13.412,29,-0.8013640000000001,-0.8014,0.8013640000000001,1,1.0,loss,-0.5,16,1,1865.000000000009,0,-0.0,11.0
829,26,2023-03-26_14h51.13.412,30,88.788249,1.2118,1.211751,1,-1.0,loss,-0.5,16,1,2010.000000000105,1,-0.5,10.5
830,26,2023-03-26_14h51.13.412,31,-88.788249,-1.2118,1.211751,1,1.0,loss,-0.5,16,-1,1653.00000000002,1,-0.0,10.5
831,26,2023-03-26_14h51.13.412,32,0.8013640000000001,0.8014,0.8013640000000001,1,1.0,loss,-0.5,16,1,3507.000000000062,1,-0.0,10.5
832,27,2023-03-27_08h11.25.636,1,-89.198636,-0.8014,0.8013640000000001,1,1.0,loss,-0.5,16,-1,993.6000000237756,1,-0.0,16.0
833,27,2023-03-27_08h11.25.636,2,0.8013640000000001,0.8014,0.8013640000000001,1,1.0,loss,-0.5,16,-1,541.1999999880663,0,-0.0,16.0
834,27,2023-03-27_08h11.25.636,3,88.788249,1.2118,1.211751,1,-1.0,loss,-0.5,16,-1,625.6999999881145,0,-0.5,15.5
835,27,2023-03-27_08h11.25.636,4,-88.788249,-1.2118,1.211751,1,1.0,loss,-0.5,16,1,741.0999999642627,0,-0.0,15.5
836,27,2023-03-27_08h11.25.636,5,1.211751,1.2118,1.211751,1,-1.0,loss,-0.5,16,-1,1240.800000011859,0,-0.5,15.0
837,27,2023-03-27_08h11.25.636,6,89.198636,0.8014,0.8013640000000001,1,-1.0,loss,-0.5,16,1,1726.300000011861,1,-0.5,14.5
838,27,2023-03-27_08h11.25.636,7,-0.8013640000000001,-0.8014,0.8013640000000001,1,-1.0,loss,-0.5,16,1,2232.500000000073,0,-0.5,14.0
839,27,2023-03-27_08h11.25.636,8,-1.211751,-1.2118,1.211751,1,1.0,loss,-0.5,16,-1,1915.499999999952,1,-0.0,14.0
840,27,2023-03-27_08h11.25.636,9,1.211751,1.2118,1.211751,1,-1.0,loss,-0.5,16,-1,1520.999999999958,0,-0.5,13.5
841,27,2023-03-27_08h11.25.636,10,-0.8013640000000001,-0.8014,0.8013640000000001,1,-1.0,loss,-0.5,16,1,1551.399999976184,0,-0.5,13.0
842,27,2023-03-27_08h11.25.636,11,89.198636,0.8014,0.8013640000000001,1,-1.0,loss,-0.5,16,-1,1015.599999964252,0,-0.5,12.5
843,27,2023-03-27_08h11.25.636,12,0.8013640000000001,0.8014,0.8013640000000001,1,1.0,loss,-0.5,16,1,2106.700000047681,1,-0.0,12.5
844,27,2023-03-27_08h11.25.636,13,-1.211751,-1.2118,1.211751,1,-1.0,loss,-0.5,16,1,2801.400000035869,0,-0.5,12.0
845,27,2023-03-27_08h11.25.636,14,-89.198636,-0.8014,0.8013640000000001,1,1.0,loss,-0.5,16,1,965.50000000002,0,-0.0,12.0
846,27,2023-03-27_08h11.25.636,15,88.788249,1.2118,1.211751,1,-1.0,loss,-0.5,16,1,2915.600000023801,1,-0.5,11.5
847,27,2023-03-27_08h11.25.636,16,-88.788249,-1.2118,1.211751,1,1.0,loss,-0.5,16,-1,2253.299999952333,1,-0.0,11.5
848,27,2023-03-27_08h11.25.636,17,0.8013640000000001,0.8014,0.8013640000000001,1,1.0,loss,-0.5,16,1,1385.700000047677,1,-0.0,11.5
849,27,2023-03-27_08h11.25.636,18,-89.198636,-0.8014,0.8013640000000001,1,1.0,loss,-0.5,16,-1,1118.800000011902,1,-0.0,11.5
850,27,2023-03-27_08h11.25.636,19,89.198636,0.8014,0.8013640000000001,1,-1.0,loss,-0.5,16,1,1619.900000035727,1,-0.5,11.0
851,27,2023-03-27_08h11.25.636,20,-88.788249,-1.2118,1.211751,1,1.0,loss,-0.5,16,-1,1659.800000011955,1,-0.0,11.0
852,27,2023-03-27_08h11.25.636,21,1.211751,1.2118,1.211751,1,1.0,loss,-0.5,16,1,2068.100000023833,1,-0.0,11.0
853,27,2023-03-27_08h11.25.636,22,88.788249,1.2118,1.211751,1,-1.0,loss,-0.5,16,1,2452.899999976239,1,-0.5,10.5
